"Time (s)","Linear Acceleration x (m/s^2)","Linear Acceleration y (m/s^2)","Linear Acceleration z (m/s^2)"
1.100933960E-1,-2.199999988E-3,-1.857999945E-3,1.478579938E-1
1.241000970E-1,-2.199999988E-3,-1.857999945E-3,1.478579938E-1
1.381060150E-1,-2.615999896E-3,-2.636000048E-3,1.996939927E-1
1.521126920E-1,-3.281000070E-3,-3.370000049E-3,2.221959978E-1
1.661201640E-1,-3.281000070E-3,-3.370000049E-3,2.221959978E-1
1.801268320E-1,-3.639000002E-3,-4.269000143E-3,2.435979992E-1
1.941328270E-1,-3.880999982E-3,-4.075999837E-3,2.436150014E-1
2.081395200E-1,-3.880999982E-3,-4.075999837E-3,2.436150014E-1
2.221469570E-1,-3.168999916E-3,-5.716000218E-3,2.728109956E-1
2.361536300E-1,-3.217000049E-3,-5.084000062E-3,2.254869938E-1
2.501595730E-1,-2.359000035E-3,-3.298999975E-3,1.534229964E-1
2.641662500E-1,-2.359000035E-3,-3.298999975E-3,1.534229964E-1
2.781736790E-1,-1.775000012E-3,-2.505999990E-3,1.249589995E-1
2.921804050E-1,-2.132999944E-3,-2.450000029E-3,1.367640048E-1
3.061863810E-1,-2.132999944E-3,-2.450000029E-3,1.367640048E-1
3.201930440E-1,-3.446999937E-3,-4.042999819E-3,2.130469978E-1
3.342004870E-1,-3.982999828E-3,-5.355000030E-3,2.709710002E-1
3.482071690E-1,-3.982999828E-3,-5.355000030E-3,2.709710002E-1
3.622130970E-1,-2.514199913E-2,6.275999825E-3,3.401359916E-1
3.762198720E-1,-3.437000141E-2,3.985900059E-2,2.281589955E-1
3.902273430E-1,2.619500086E-2,2.276000008E-2,1.271660030E-1
4.042340310E-1,2.619500086E-2,2.276000008E-2,1.271660030E-1
4.182399340E-1,1.960499957E-2,-1.284400001E-2,1.462209970E-1
4.322466310E-1,-1.769999944E-4,-1.093699969E-2,1.822489947E-1
4.462542040E-1,-1.769999944E-4,-1.093699969E-2,1.822489947E-1
4.602609150E-1,-8.941000327E-3,5.735999905E-3,2.592720091E-1
4.742668380E-1,2.303000074E-3,-2.337799966E-2,2.542580068E-1
4.882735590E-1,2.303000074E-3,-2.337799966E-2,2.542580068E-1
5.022809860E-1,-5.259200186E-2,-2.901500091E-2,2.041600049E-1
5.162877410E-1,-2.745600045E-2,-1.301399991E-2,1.770830005E-1
5.302936640E-1,-8.996999823E-3,-1.356100012E-2,1.750349998E-1
5.443003470E-1,-8.996999823E-3,-1.356100012E-2,1.750349998E-1
5.583078130E-1,-1.942799985E-2,-1.299200021E-2,1.559990048E-1
5.723145960E-1,-3.438699991E-2,-1.177099999E-2,1.820520014E-1
5.863205400E-1,-3.438699991E-2,-1.177099999E-2,1.820520014E-1
6.003272360E-1,-4.261999857E-3,-1.441199984E-2,2.231319994E-1
6.143347020E-1,8.748999797E-3,1.528699975E-2,2.182240039E-1
6.283414820E-1,8.748999797E-3,1.528699975E-2,2.182240039E-1
6.423474000E-1,4.958000034E-3,-2.421100065E-2,3.382380009E-1
6.563541010E-1,-3.760899976E-2,-7.182000205E-3,1.460269988E-1
6.703615390E-1,1.050799992E-2,6.862500310E-2,3.807799891E-2
6.843683180E-1,1.050799992E-2,6.862500310E-2,3.807799891E-2
6.983742360E-1,-3.300000026E-5,1.084999996E-3,1.170480028E-1
7.123809380E-1,-2.415700071E-2,-5.764399841E-2,1.559990048E-1
7.263884720E-1,-2.415700071E-2,-5.764399841E-2,1.559990048E-1
7.403951680E-1,-9.464999661E-3,-3.807000071E-2,3.781650066E-1
7.544011010E-1,-1.368399989E-2,-2.137099952E-2,3.261609972E-1
7.684078850E-1,-1.368399989E-2,-2.137099952E-2,3.261609972E-1
7.824153610E-1,4.532000050E-3,-6.176400185E-2,8.920300007E-2
7.964220200E-1,4.335000180E-3,-6.695900112E-2,1.393450052E-1
8.104280010E-1,-1.220200025E-2,-1.258399989E-2,2.514280081E-1
8.244346830E-1,-1.220200025E-2,-1.258399989E-2,2.514280081E-1
8.384421450E-1,8.476000279E-3,1.326760054E-1,2.514179945E-1
8.524488320E-1,5.823599920E-2,8.377899975E-2,1.964270025E-1
8.664548420E-1,5.823599920E-2,8.377899975E-2,1.964270025E-1
8.804615000E-1,1.616800018E-2,-1.381000038E-2,1.374830008E-1
8.944689620E-1,-6.874600053E-2,-9.387599677E-2,1.086340025E-1
9.084757310E-1,-6.874600053E-2,-9.387599677E-2,1.086340025E-1
9.224816590E-1,-6.147000007E-3,-2.740399912E-2,2.048539966E-1
9.364883710E-1,3.340100124E-2,8.830100298E-2,3.219400048E-1
9.504958220E-1,2.408399992E-2,3.340699896E-2,2.519029975E-1
9.645025820E-1,2.408399992E-2,3.340699896E-2,2.519029975E-1
9.785084620E-1,-1.639999973E-4,-7.455500215E-2,1.568659991E-1
9.925151930E-1,-8.007000200E-3,-1.061540022E-1,1.879909933E-1
1.006522664E0,-8.007000200E-3,-1.061540022E-1,1.879909933E-1
1.020529347E0,-2.198500000E-2,-1.155500021E-2,2.411610037E-1
1.034535357E0,-1.526799984E-2,4.662799835E-2,2.523030043E-1
1.048542068E0,-1.526799984E-2,4.662799835E-2,2.523030043E-1
1.062549530E0,-2.312199958E-2,-2.689499967E-2,2.124000043E-1
1.076556304E0,-1.333300024E-2,-3.402000060E-3,1.354549974E-1
1.090562231E0,3.581700101E-2,6.331499666E-2,1.066090018E-1
1.104568933E0,3.581700101E-2,6.331499666E-2,1.066090018E-1
1.118576491E0,2.549800090E-2,5.993799865E-2,2.058559954E-1
1.132583178E0,-1.439000014E-3,-2.921500057E-2,3.089919984E-1
1.146589173E0,-1.439000014E-3,-2.921500057E-2,3.089919984E-1
1.160595852E0,1.664100029E-2,-2.291500010E-2,2.578989863E-1
1.174603337E0,3.981500119E-2,-1.542500034E-2,1.478080004E-1
1.188610072E0,3.981500119E-2,-1.542500034E-2,1.478080004E-1
1.202616083E0,3.139400110E-2,-8.364000358E-3,1.287830025E-1
1.216622770E0,-2.450000029E-4,-3.683000105E-3,1.508139968E-1
1.230630322E0,-1.087300014E-2,-3.959599882E-2,1.958550066E-1
1.244637006E0,-1.087300014E-2,-3.959599882E-2,1.958550066E-1
1.258642890E0,-2.081000013E-3,-3.384700045E-2,2.148779929E-1
1.272649674E0,2.673000097E-3,-3.677000059E-3,2.298669964E-1
1.286657111E0,2.673000097E-3,-3.677000059E-3,2.298669964E-1
1.300663794E0,7.215000223E-3,-1.108999946E-3,2.028380036E-1
1.314669799E0,3.333000001E-3,1.462399960E-2,1.698240042E-1
1.328676452E0,3.333000001E-3,1.462399960E-2,1.698240042E-1
1.342683919E0,-4.234999884E-3,1.169599965E-2,1.548330039E-1
1.356690697E0,2.268099971E-2,-8.233999833E-3,1.669559926E-1
1.370696644E0,2.720399946E-2,-1.612400077E-2,2.491099983E-1
1.384703429E0,2.720399946E-2,-1.612400077E-2,2.491099983E-1
1.398710890E0,1.513100043E-2,-6.574000232E-3,2.492330074E-1
1.412717563E0,-6.859999849E-4,-4.245999828E-2,3.041040003E-1
1.426723564E0,-6.859999849E-4,-4.245999828E-2,3.041040003E-1
1.440730217E0,-2.017799951E-2,1.420500036E-2,6.695300341E-2
1.454737668E0,2.921600081E-2,3.617500141E-2,3.601400182E-2
1.468744462E0,2.921600081E-2,3.617500141E-2,3.601400182E-2
1.482750380E0,-8.751999587E-3,-3.499799967E-2,1.938849986E-1
1.496757173E0,-6.337000057E-3,-6.369400024E-2,3.039369881E-1
1.510764635E0,-9.304000065E-3,-4.596300051E-2,3.489409983E-1
1.524771294E0,-9.304000065E-3,-4.596300051E-2,3.489409983E-1
1.538777308E0,-6.419999991E-4,-2.366999909E-2,1.938209981E-1
1.552783995E0,7.595899701E-2,-2.529699914E-2,9.087800235E-2
1.566791539E0,7.595899701E-2,-2.529699914E-2,9.087800235E-2
1.580798222E0,7.127399743E-2,1.328300033E-2,1.839880049E-1
1.594804227E0,-1.511000004E-2,2.165799960E-2,2.130160034E-1
1.608810877E0,-1.511000004E-2,2.165799960E-2,2.130160034E-1
1.622818328E0,5.063000135E-3,3.230499849E-2,1.910549998E-1
1.636825097E0,4.338600114E-2,4.255200177E-2,2.151309997E-1
1.650831001E0,2.106500044E-2,-2.264700085E-2,2.302100062E-1
1.664837785E0,2.106500044E-2,-2.264700085E-2,2.302100062E-1
1.678845237E0,9.530999698E-3,-3.398099914E-2,2.271990031E-1
1.692851925E0,1.418200042E-2,-3.284199908E-2,1.741809994E-1
1.706857925E0,1.418200042E-2,-3.284199908E-2,1.741809994E-1
1.720864621E0,9.081999771E-3,5.915999878E-3,1.632380038E-1
1.734872165E0,-1.240899973E-2,-3.332699835E-2,1.702560037E-1
1.748878852E0,-1.240899973E-2,-3.332699835E-2,1.702560037E-1
1.762884780E0,2.707899921E-2,-4.283199832E-2,2.033320069E-1
1.776891534E0,1.315500028E-2,-2.708600089E-2,2.633720040E-1
1.790898991E0,1.614999957E-3,-1.723999972E-3,2.494429946E-1
1.804905722E0,1.614999957E-3,-1.723999972E-3,2.494429946E-1
1.818911649E0,-5.795999896E-3,6.370999850E-3,1.485240012E-1
1.832918347E0,2.226600051E-2,2.944800071E-2,1.347170025E-1
1.846925890E0,2.226600051E-2,2.944800071E-2,1.347170025E-1
1.860932635E0,1.049700007E-2,4.090699926E-2,1.588860005E-1
1.874938635E0,-2.645399980E-2,1.351800002E-2,1.970299929E-1
1.888945347E0,-2.645399980E-2,1.351800002E-2,1.970299929E-1
1.902952894E0,3.920900077E-2,-1.975899935E-2,2.191199958E-1
1.916959597E0,4.783999920E-2,-5.450899899E-2,2.451480031E-1
1.930965525E0,3.618400171E-2,-1.358800009E-2,2.351330072E-1
1.944972303E0,3.618400171E-2,-1.358800009E-2,2.351330072E-1
1.958979780E0,2.226500027E-2,4.707999993E-3,1.990720034E-1
1.972986534E0,4.338200018E-2,-8.014000021E-3,1.850129962E-1
1.986992467E0,4.338200018E-2,-8.014000021E-3,1.850129962E-1
2.000999168E0,2.271299995E-2,-5.077299848E-2,1.799860001E-1
2.015006722E0,-2.458599955E-2,-3.947300091E-2,2.308789939E-1
2.029013428E0,-2.235000022E-3,-1.075700019E-2,2.347819954E-1
2.043019428E0,-2.235000022E-3,-1.075700019E-2,2.347819954E-1
2.057026111E0,2.227400057E-2,1.353999972E-2,1.605799943E-1
2.071033669E0,-5.665000062E-3,1.871700026E-2,1.554919928E-1
2.085040342E0,-5.665000062E-3,1.871700026E-2,1.554919928E-1
2.099046269E0,-2.569000004E-3,-5.774000194E-3,1.554429978E-1
2.113053030E0,4.694100097E-2,1.413400006E-2,1.705520004E-1
2.127060481E0,4.694100097E-2,1.413400006E-2,1.705520004E-1
2.141067222E0,3.103099950E-2,-1.014200039E-2,2.066500038E-1
2.155073169E0,3.234300017E-2,-1.118400041E-2,2.927579880E-1
2.169079914E0,-6.374999881E-3,-1.783400029E-2,3.305189908E-1
2.183087385E0,-6.374999881E-3,-1.783400029E-2,3.305189908E-1
2.197094082E0,2.164199948E-2,4.724900052E-2,2.435199916E-2
2.211100054E0,4.922400042E-2,9.913000278E-3,8.633200079E-2
2.225106770E0,4.922400042E-2,9.913000278E-3,8.633200079E-2
2.239114300E0,-3.230999922E-3,-4.245200008E-2,1.481840014E-1
2.253120987E0,2.319999970E-3,-2.299699932E-2,2.943030000E-1
2.267127001E0,2.319999970E-3,-2.299699932E-2,2.943030000E-1
2.281133684E0,7.364999969E-3,-6.211000029E-3,3.092469871E-1
2.295141178E0,1.484899968E-2,-3.654999891E-3,9.815300256E-2
2.309147938E0,8.413200080E-2,-3.088999912E-2,1.272439957E-1
2.323153861E0,8.413200080E-2,-3.088999912E-2,1.272439957E-1
2.337160631E0,3.416899964E-2,9.228999726E-3,2.223930061E-1
2.351168078E0,1.250899956E-2,4.173500091E-2,2.274399996E-1
2.365174885E0,1.250899956E-2,4.173500091E-2,2.274399996E-1
2.379180794E0,3.208599985E-2,5.036300048E-2,1.864680052E-1
2.393187568E0,5.736000091E-2,-3.641000018E-3,1.845470071E-1
2.407195063E0,5.736000091E-2,-3.641000018E-3,1.845470071E-1
2.421201818E0,1.222799998E-2,-1.723000035E-2,1.916099936E-1
2.435207799E0,2.093599923E-2,-4.196000099E-2,2.086659968E-1
2.449214500E0,2.025499940E-2,-4.839000106E-2,2.327490002E-1
2.463222059E0,2.025499940E-2,-4.839000106E-2,2.327490002E-1
2.477228741E0,3.559000092E-3,-1.587799937E-2,2.087969929E-1
2.491234741E0,-2.451000037E-3,-1.001700014E-2,1.487589926E-1
2.505241414E0,-2.451000037E-3,-1.001700014E-2,1.487589926E-1
2.519248895E0,2.316400036E-2,-2.215199918E-2,1.798429936E-1
2.533255674E0,1.000200026E-2,-2.680299990E-2,1.969680041E-1
2.547261597E0,1.000200026E-2,-2.680299990E-2,1.969680041E-1
2.561268376E0,4.600000102E-4,8.573999628E-3,1.780859977E-1
2.575275828E0,1.197499968E-2,3.513899818E-2,1.562689990E-1
2.589282601E0,4.372600093E-2,9.867999703E-3,2.265390009E-1
2.603288539E0,4.372600093E-2,9.867999703E-3,2.265390009E-1
2.617295265E0,2.026000060E-2,3.024999984E-3,2.527680099E-1
2.631302731E0,-1.201300044E-2,-2.335000085E-3,1.998640001E-1
2.645309377E0,-1.201300044E-2,-2.335000085E-3,1.998640001E-1
2.659315367E0,3.999900073E-2,-1.999999949E-4,1.599290073E-1
2.673322045E0,6.346599758E-2,-2.183499932E-2,2.119890004E-1
2.687329574E0,6.346599758E-2,-2.183499932E-2,2.119890004E-1
2.701336281E0,3.026100062E-2,-6.610000273E-4,2.340209931E-1
2.715342271E0,3.622000106E-3,-2.113199979E-2,2.529479861E-1
2.729348949E0,1.758000068E-2,-3.482300043E-2,2.028310001E-1
2.743356411E0,1.758000068E-2,-3.482300043E-2,2.028310001E-1
2.757363203E0,2.658399940E-2,-2.847599983E-2,1.837169975E-1
2.771369194E0,1.563699916E-2,-3.434799984E-2,1.546279937E-1
2.785375881E0,1.563699916E-2,-3.434799984E-2,1.546279937E-1
2.799383314E0,1.247300021E-2,9.991000406E-3,1.785430014E-1
2.813390083E0,1.987300068E-2,1.178700011E-2,1.954129934E-1
2.827396020E0,1.987300068E-2,1.178700011E-2,1.954129934E-1
2.841402794E0,9.247000329E-3,-5.228000227E-3,2.232799977E-1
2.855410250E0,2.061700076E-2,-1.648100093E-2,2.161419988E-1
2.869417024E0,2.457099967E-2,-1.453199983E-2,1.711400002E-1
2.883422948E0,2.457099967E-2,-1.453199983E-2,1.711400002E-1
2.897429703E0,6.593199819E-2,-1.033100020E-2,1.972209960E-1
2.911437149E0,1.826900057E-2,1.305199973E-2,1.992989928E-1
2.925443837E0,1.826900057E-2,1.305199973E-2,1.992989928E-1
2.939449857E0,-5.578000098E-3,-1.580600068E-2,2.451180071E-1
2.953456520E0,-6.678000093E-3,2.579700015E-2,4.094899818E-2
2.967464020E0,-6.678000093E-3,2.579700015E-2,4.094899818E-2
2.981470712E0,5.964099988E-2,-4.844000097E-3,1.249869987E-1
2.995476717E0,1.233099960E-2,-5.709499866E-2,2.468769997E-1
3.009483428E0,2.444300056E-2,-7.045800239E-2,3.138999939E-1
3.023490895E0,2.444300056E-2,-7.045800239E-2,3.138999939E-1
3.037497659E0,1.772999950E-2,1.385500003E-2,2.927739918E-1
3.051503659E0,5.082999822E-3,-4.813000094E-3,5.561999977E-2
3.065510347E0,5.082999822E-3,-4.813000094E-3,5.561999977E-2
3.079517823E0,6.206599995E-2,-6.879999768E-3,3.671300039E-2
3.093524592E0,4.181399941E-2,-6.316999905E-3,2.399439961E-1
3.107530520E0,4.181399941E-2,-6.316999905E-3,2.399439961E-1
3.121537304E0,-8.272999898E-3,1.356500015E-2,2.829670012E-1
3.135544793E0,1.310000010E-2,3.661299869E-2,2.109279931E-1
3.149551549E0,4.187500104E-2,2.138300054E-2,1.659370065E-1
3.163557482E0,4.187500104E-2,2.138300054E-2,1.659370065E-1
3.177564250E0,1.088699978E-2,1.162699983E-2,1.950010061E-1
3.191571722E0,1.484400034E-2,-3.620899841E-2,1.970410049E-1
3.205578419E0,1.484400034E-2,-3.620899841E-2,1.970410049E-1
3.219584438E0,3.580300137E-2,-5.253899843E-2,2.281010002E-1
3.233591121E0,1.734199934E-2,-4.184399918E-2,2.211319953E-1
3.247598664E0,1.734199934E-2,-4.184399918E-2,2.211319953E-1
3.261605342E0,2.409300022E-2,-1.807000022E-3,1.440369934E-1
3.275611342E0,3.042300045E-2,1.159199979E-2,1.130639985E-1
3.289618015E0,2.853900008E-2,-5.812000018E-3,1.951739937E-1
3.303625573E0,2.853900008E-2,-5.812000018E-3,1.951739937E-1
3.317632255E0,-5.181999877E-3,-9.805000387E-3,2.113790065E-1
3.331638265E0,1.647499949E-2,-1.493499987E-2,1.955499947E-1
3.345644944E0,1.647499949E-2,-1.493499987E-2,1.955499947E-1
3.359652356E0,3.435999900E-2,-4.614999983E-3,2.117329985E-1
3.373659136E0,1.583399996E-2,3.073100001E-2,2.338580042E-1
3.387665078E0,1.583399996E-2,3.073100001E-2,2.338580042E-1
3.401671838E0,1.049999986E-2,2.053399943E-2,1.959190071E-1
3.415679270E0,1.741199940E-2,9.130000137E-3,1.789350063E-1
3.429686016E0,2.970499918E-2,-1.010600012E-2,1.929209977E-1
3.443691948E0,2.970499918E-2,-1.010600012E-2,1.929209977E-1
3.457698708E0,3.082400002E-2,-2.391000092E-2,2.318850011E-1
3.471706195E0,4.900100082E-2,-3.071499988E-2,2.598310113E-1
3.485712891E0,4.900100082E-2,-3.071499988E-2,2.598310113E-1
3.499718920E0,3.228700161E-2,-4.248800129E-2,2.337809950E-1
3.513725660E0,9.921000339E-3,-1.041399967E-2,2.216819972E-1
3.527733132E0,9.921000339E-3,-1.041399967E-2,2.216819972E-1
3.541739824E0,-1.068300009E-2,3.100000089E-3,2.095219940E-1
3.555745848E0,-8.570000064E-4,2.281999914E-3,1.903939992E-1
3.569752560E0,1.954299957E-2,6.825999822E-3,1.902119964E-1
3.583760107E0,1.954299957E-2,6.825999822E-3,1.902119964E-1
3.597766809E0,2.885399945E-2,-1.854900084E-2,1.350219995E-1
3.611772804E0,2.894899994E-2,-2.456000075E-3,1.919970065E-1
3.625779507E0,2.894899994E-2,-2.456000075E-3,1.919970065E-1
3.639787064E0,2.627100050E-2,-2.198000066E-2,2.209690064E-1
3.653793752E0,1.861199923E-2,1.351100020E-2,2.139060050E-1
3.667799785E0,1.861199923E-2,1.351100020E-2,2.139060050E-1
3.681806477E0,-2.111200057E-2,1.807000022E-3,1.345030069E-1
3.695813934E0,2.726599947E-2,4.090800136E-2,7.239600271E-2
3.709820665E0,2.989099920E-2,-3.830799833E-2,1.842990071E-1
3.723826603E0,2.989099920E-2,-3.830799833E-2,1.842990071E-1
3.737833362E0,-3.644800186E-2,-5.374500155E-2,2.099580020E-1
3.751840834E0,1.327800006E-2,-2.730000019E-2,2.368679941E-1
3.765847598E0,1.327800006E-2,-2.730000019E-2,2.368679941E-1
3.779853516E0,1.060700044E-2,-1.623000018E-2,2.317290008E-1
3.793860275E0,-6.409999914E-4,-7.780999877E-3,8.361600339E-2
3.807867718E0,-6.409999914E-4,-7.780999877E-3,8.361600339E-2
3.821874434E0,6.593500078E-2,-1.088299975E-2,1.456670016E-1
3.835880429E0,3.601500019E-2,1.994800009E-2,2.126470059E-1
3.849887209E0,5.673000123E-3,2.233799919E-2,2.335579991E-1
3.863894679E0,5.673000123E-3,2.233799919E-2,2.335579991E-1
3.877901387E0,1.117699966E-2,1.587999985E-2,1.904460043E-1
3.891907377E0,8.442999795E-3,9.119999595E-3,1.813900024E-1
3.905914058E0,8.442999795E-3,9.119999595E-3,1.813900024E-1
3.919921606E0,2.589999931E-3,6.453000009E-3,2.213589996E-1
3.933928299E0,3.560000041E-4,-2.019600011E-2,2.213049978E-1
3.947934304E0,3.560000041E-4,-2.019600011E-2,2.213049978E-1
3.961940976E0,6.225999910E-3,-6.037300080E-2,2.312529981E-1
3.975948501E0,-1.906999969E-3,-2.244099975E-2,1.851840019E-1
3.989955188E0,-9.828000329E-3,-2.047999948E-2,1.400630027E-1
4.003961188E0,-9.828000329E-3,-2.047999948E-2,1.400630027E-1
4.017967899E0,2.237699926E-2,-2.022200078E-2,1.829860061E-1
4.031975366E0,8.853999898E-3,-1.740499958E-2,1.879670024E-1
4.045982130E0,8.853999898E-3,-1.740499958E-2,1.879670024E-1
4.059988121E0,-2.819000045E-3,-1.322999946E-3,1.830309927E-1
4.073994814E0,-1.181900036E-2,6.603999995E-3,1.301160008E-1
4.088002270E0,-1.181900036E-2,6.603999995E-3,1.301160008E-1
4.102009005E0,2.430400066E-2,2.107900009E-2,1.623000056E-1
4.116014924E0,-4.641999956E-3,1.885700040E-2,2.024510056E-1
4.130021693E0,2.570000070E-4,1.021999959E-2,2.265679985E-1
4.144029173E0,2.570000070E-4,1.021999959E-2,2.265679985E-1
4.158035972E0,5.441100150E-2,-2.482900023E-2,2.216269970E-1
4.172041881E0,2.999000065E-2,-3.199999919E-3,2.246000022E-1
4.186048650E0,2.999000065E-2,-3.199999919E-3,2.246000022E-1
4.200056116E0,3.110899962E-2,1.382100023E-2,2.245679945E-1
4.214062832E0,1.919499971E-2,-2.441300079E-2,2.095289975E-1
4.228068823E0,1.919499971E-2,-2.441300079E-2,2.095289975E-1
4.242075486E0,1.760100015E-2,-3.245300055E-2,2.004420012E-1
4.256083020E0,-2.198999980E-3,-2.863099985E-2,1.663749963E-1
4.270089693E0,6.198000163E-3,-1.078100037E-2,2.122880071E-1
4.284095688E0,6.198000163E-3,-1.078100037E-2,2.122880071E-1
4.298102381E0,-4.224000033E-3,7.992000319E-3,1.641730070E-1
4.312109928E0,-1.184200030E-2,-3.200999927E-3,1.541520059E-1
4.326116636E0,-1.184200030E-2,-3.200999927E-3,1.541520059E-1
4.340122631E0,5.439700186E-2,-3.258199990E-2,2.142120004E-1
4.354129324E0,2.039599977E-2,1.030700002E-2,2.122849971E-1
4.368136843E0,2.039599977E-2,1.030700002E-2,2.122849971E-1
4.382143526E0,5.768999923E-3,-1.116700005E-2,2.601320148E-1
4.396149521E0,-2.483499981E-2,2.640200034E-2,5.090700090E-2
4.410156218E0,5.326199904E-2,2.226299979E-2,6.097000092E-2
4.424163674E0,5.326199904E-2,2.226299979E-2,6.097000092E-2
4.438170449E0,-9.317000397E-3,-7.770600170E-2,2.358060032E-1
4.452176372E0,-1.442799997E-2,-4.457499832E-2,2.426930070E-1
4.466183131E0,-1.442799997E-2,-4.457499832E-2,2.426930070E-1
4.480190613E0,1.372299995E-2,-3.778100014E-2,3.406499922E-1
4.494197362E0,-7.894000039E-3,-4.961000010E-2,2.115029991E-1
4.508203300E0,-7.894000039E-3,-4.961000010E-2,2.115029991E-1
4.522210074E0,4.021099955E-2,-3.086699918E-2,7.749699801E-2
4.536217545E0,6.041099876E-2,-7.162999827E-3,1.585759968E-1
4.550224324E0,1.293499954E-2,1.738199964E-2,2.166420072E-1
4.564230223E0,1.293499954E-2,1.738199964E-2,2.166420072E-1
4.578236993E0,8.190999739E-3,1.100100018E-2,2.236610055E-1
4.592244444E0,1.455000043E-2,6.672000047E-3,1.966959983E-1
4.606251160E0,1.455000043E-2,6.672000047E-3,1.966959983E-1
4.620257180E0,1.514100004E-2,-1.107699983E-2,2.187339962E-1
4.634263925E0,-1.744700037E-2,-2.259599976E-2,2.187220007E-1
4.648271362E0,-1.744700037E-2,-2.259599976E-2,2.187220007E-1
4.662278065E0,4.236999899E-3,-5.569700152E-2,1.297380030E-1
4.676284055E0,2.295199968E-2,-4.501999915E-2,2.167939991E-1
4.690290761E0,-1.554000005E-2,-3.109399974E-2,1.708319932E-1
4.704298305E0,-1.554000005E-2,-3.109399974E-2,1.708319932E-1
4.718304983E0,1.719900034E-2,-2.314200066E-2,1.498080045E-1
4.732310973E0,5.241400003E-2,-3.376000002E-2,1.758580059E-1
4.746317651E0,5.241400003E-2,-3.376000002E-2,1.758580059E-1
4.760325180E0,1.006499957E-2,-6.721000187E-3,1.949860007E-1
4.774331882E0,-3.661999851E-2,-1.248699985E-2,1.831090003E-1
4.788337857E0,-3.661999851E-2,-1.248699985E-2,1.831090003E-1
4.802344593E0,1.020499971E-2,-1.102299988E-2,1.543799937E-1
4.816352040E0,3.667999990E-3,1.209999993E-2,1.906300038E-1
4.830358776E0,-1.284699980E-2,4.643999971E-3,1.958719939E-1
4.844364708E0,-1.284699980E-2,4.643999971E-3,1.958719939E-1
4.858371488E0,4.306999967E-3,-1.741199940E-2,2.440859973E-1
4.872379001E0,-2.246000106E-3,-4.984699935E-2,2.581619918E-1
4.886385775E0,-2.246000106E-3,-4.984699935E-2,2.581619918E-1
4.900391646E0,2.188800089E-2,-3.563399985E-2,2.221380025E-1
4.914398425E0,3.213699907E-2,-6.833000109E-3,1.701039970E-1
4.928405862E0,3.213699907E-2,-6.833000109E-3,1.701039970E-1
4.942412632E0,2.155000111E-3,-1.330799982E-2,1.460880041E-1
4.956418549E0,-8.476000279E-3,-1.762600057E-2,1.840669960E-1
4.970425337E0,-1.506999950E-3,-3.298399970E-2,2.080110013E-1
4.984432818E0,-1.506999950E-3,-3.298399970E-2,2.080110013E-1
4.998439554E0,8.430000395E-3,-3.715600073E-2,2.268899977E-1
5.012445530E0,-6.903000176E-3,-3.648899868E-2,1.458040029E-1
5.026452231E0,-6.903000176E-3,-3.648899868E-2,1.458040029E-1
5.040459765E0,5.079799891E-2,-2.765900083E-2,1.738519967E-1
5.054466462E0,1.643900014E-2,6.188999861E-3,1.769270003E-1
5.068472453E0,1.643900014E-2,6.188999861E-3,1.769270003E-1
5.082479141E0,-7.172000129E-3,-2.914000070E-3,2.389580011E-1
5.096486664E0,-6.151499972E-2,5.216999911E-3,1.267870069E-1
5.110493390E0,2.529899962E-2,2.004200034E-2,7.180900127E-2
5.124499409E0,2.529899962E-2,2.004200034E-2,7.180900127E-2
5.138506131E0,1.993699931E-2,-4.462900013E-2,2.027599961E-1
5.152513688E0,-2.521000104E-3,-5.148399994E-2,2.436040044E-1
5.166520415E0,-2.521000104E-3,-5.148399994E-2,2.436040044E-1
5.180526411E0,2.484000055E-3,-5.449799821E-2,3.365960121E-1
5.194533112E0,-2.128200047E-2,-4.236400127E-2,2.314410061E-1
5.208540541E0,-2.128200047E-2,-4.236400127E-2,2.314410061E-1
5.222547314E0,1.608799957E-2,-2.849600092E-2,6.833499670E-2
5.236553237E0,8.052600175E-2,-7.947999984E-3,1.383820027E-1
5.250559992E0,3.001599945E-2,-1.818300039E-2,2.194209993E-1
5.264567459E0,3.001599945E-2,-1.818300039E-2,2.194209993E-1
5.278574227E0,-8.724999614E-3,3.459899873E-2,2.384050041E-1
5.292580131E0,1.821799949E-2,3.643300012E-2,1.644140035E-1
5.306586919E0,1.821799949E-2,3.643300012E-2,1.644140035E-1
5.320594377E0,2.632099949E-2,7.430000231E-3,1.664820015E-1
5.334601131E0,2.806999953E-3,3.999999899E-5,2.005590051E-1
5.348607011E0,2.806999953E-3,3.999999899E-5,2.005590051E-1
5.362613786E0,6.752999965E-3,-4.041099921E-2,2.056120038E-1
5.376621207E0,2.928400040E-2,-7.367599756E-2,2.556560040E-1
5.390627886E0,4.013999831E-3,-5.982999876E-2,1.977179945E-1
5.404633838E0,4.013999831E-3,-5.982999876E-2,1.977179945E-1
5.418640525E0,6.554999854E-3,-2.329399996E-2,1.786960065E-1
5.432648068E0,2.169300057E-2,-1.576600038E-2,1.386969984E-1
5.446654751E0,2.169300057E-2,-1.576600038E-2,1.386969984E-1
5.460660780E0,4.887999967E-3,-1.367499959E-2,1.857870072E-1
5.474667457E0,-5.357999820E-3,-1.732099988E-2,1.859370023E-1
5.488674992E0,-5.357999820E-3,-1.732099988E-2,1.859370023E-1
5.502681684E0,-1.042000018E-3,-1.641600020E-2,1.721699983E-1
5.516687698E0,1.405300014E-2,-6.767999846E-3,1.893520057E-1
5.530694390E0,6.353999954E-3,2.650400065E-2,1.605429947E-1
5.544701852E0,6.353999954E-3,2.650400065E-2,1.605429947E-1
5.558708621E0,2.568900026E-2,3.930000123E-3,2.037760019E-1
5.572714549E0,1.859500073E-2,-2.088700049E-2,2.899509966E-1
5.586721309E0,1.859500073E-2,-2.088700049E-2,2.899509966E-1
5.600728771E0,1.590000093E-2,-6.726100296E-2,2.949280143E-1
5.614735569E0,1.614899933E-2,-3.559400141E-2,2.448280007E-1
5.628741507E0,1.614899933E-2,-3.559400141E-2,2.448280007E-1
5.642748300E0,3.768999875E-2,-2.191800065E-2,1.676869988E-1
5.656755756E0,8.577999659E-3,-1.215299964E-2,1.195700020E-1
5.670762526E0,-1.375900023E-2,-5.840000231E-3,1.274960041E-1
5.684768454E0,-1.375900023E-2,-5.840000231E-3,1.274960041E-1
5.698775223E0,-9.866000153E-3,2.419000026E-3,1.844259948E-1
5.712782685E0,1.308999956E-3,-1.888299920E-2,1.962849945E-1
5.726789439E0,1.308999956E-3,-1.888299920E-2,1.962849945E-1
5.740795357E0,-4.432999995E-3,-2.089899965E-2,1.552579999E-1
5.754802049E0,2.124300040E-2,-1.129299961E-2,2.182999998E-1
5.768809588E0,2.124300040E-2,-1.129299961E-2,2.182999998E-1
5.782816318E0,2.816200070E-2,2.817600034E-2,1.824019998E-1
5.796822342E0,2.540500090E-2,-1.568599977E-2,2.323800027E-1
5.810829034E0,-3.759900108E-2,1.643400081E-2,8.120699972E-2
5.824836592E0,-3.759900108E-2,1.643400081E-2,8.120699972E-2
5.838843274E0,2.032399923E-2,2.246299945E-2,8.126699924E-2
5.852849265E0,-2.689999994E-3,-5.033399910E-2,2.770969868E-1
5.866855939E0,-2.689999994E-3,-5.033399910E-2,2.770969868E-1
5.880863400E0,-1.097000018E-2,-6.992699951E-2,2.559750080E-1
5.894870174E0,1.598099992E-2,-5.903600156E-2,3.589600027E-1
5.908876194E0,1.598099992E-2,-5.903600156E-2,3.589600027E-1
5.922882910E0,-2.176100016E-2,-1.799199916E-2,1.307120025E-1
5.936890351E0,2.885499969E-2,-7.201999892E-3,1.567300037E-2
5.950897131E0,5.443000048E-2,-8.175999857E-3,1.697790027E-1
5.964903054E0,5.443000048E-2,-8.175999857E-3,1.697790027E-1
5.978909828E0,-1.648100093E-2,2.495999914E-3,2.578130066E-1
5.992917275E0,1.762000029E-3,1.778700016E-2,2.417539954E-1
6.006924002E0,1.762000029E-3,1.778700016E-2,2.417539954E-1
6.020929914E0,2.692200057E-2,9.956000373E-3,1.977480054E-1
6.034936693E0,2.085999958E-2,5.305000115E-3,1.857710034E-1
6.048944160E0,2.085999958E-2,5.305000115E-3,1.857710034E-1
6.062950953E0,-1.493099984E-2,2.550300024E-2,1.717779934E-1
6.076956880E0,-1.597199962E-2,-3.079400025E-2,1.577820033E-1
6.090963674E0,-2.755000023E-3,-7.102700323E-2,2.437949926E-1
6.104971140E0,-2.755000023E-3,-7.102700323E-2,2.437949926E-1
6.118977813E0,-9.686999954E-3,-6.095499918E-2,2.127989978E-1
6.132983779E0,5.934999790E-3,-5.629500002E-2,1.817400008E-1
6.146990487E0,5.934999790E-3,-5.629500002E-2,1.817400008E-1
6.160998029E0,3.737200052E-2,-3.344000131E-2,1.817149967E-1
6.175004737E0,1.353999949E-3,-6.967999972E-3,1.737560034E-1
6.189010727E0,-1.442699973E-2,3.898999887E-3,1.628559977E-1
6.203017429E0,-1.442699973E-2,3.898999887E-3,1.628559977E-1
6.217024973E0,1.070000045E-2,3.920999821E-3,1.480309963E-1
6.231031665E0,1.682299934E-2,-4.211000167E-3,2.441889942E-1
6.245037655E0,1.682299934E-2,-4.211000167E-3,2.441889942E-1
6.259044332E0,-1.465199981E-2,-1.327999984E-3,2.393119931E-1
6.273051862E0,1.906299964E-2,-1.780500077E-2,2.423709929E-1
6.287058539E0,1.906299964E-2,-1.780500077E-2,2.423709929E-1
6.301064544E0,1.181500033E-2,-1.753999968E-3,2.203399986E-1
6.315071231E0,-4.069000017E-3,-1.336499956E-2,2.082629949E-1
6.329078703E0,8.023000322E-3,-1.740299910E-2,1.961739957E-1
6.343085462E0,8.023000322E-3,-1.740299910E-2,1.961739957E-1
6.357091371E0,2.785800025E-2,-3.726499900E-2,1.670590043E-1
6.371098131E0,1.022300031E-2,-4.910799861E-2,1.669670045E-1
6.385105602E0,1.022300031E-2,-4.910799861E-2,1.669670045E-1
6.399112381E0,2.275899984E-2,-2.811400034E-2,1.819009930E-1
6.413118304E0,1.116599981E-2,-1.315500028E-2,2.007910013E-1
6.427125092E0,1.116599981E-2,-1.315500028E-2,2.007910013E-1
6.441132563E0,1.759199984E-2,-1.386999968E-3,1.646769941E-1
6.455139280E0,1.717999950E-2,-7.652000058E-3,1.506910026E-1
6.469145280E0,1.778299920E-2,-2.291099913E-2,1.977770030E-1
6.483152063E0,1.778299920E-2,-2.291099913E-2,1.977770030E-1
6.497159496E0,1.157999970E-3,-1.346599963E-2,2.299059927E-1
6.511166179E0,-2.978000091E-3,-2.645399980E-2,2.888059914E-1
6.525172155E0,-2.978000091E-3,-2.645399980E-2,2.888059914E-1
6.539178828E0,-3.311000066E-3,1.131900027E-2,8.365800232E-2
6.553186372E0,4.617900029E-2,2.789999917E-2,1.697240025E-1
6.567193059E0,4.617900029E-2,2.789999917E-2,1.697240025E-1
6.581199064E0,-2.945999987E-2,-4.358499870E-2,2.454960048E-1
6.595205723E0,-2.604800090E-2,-3.908799961E-2,2.053299993E-1
6.609213242E0,-1.984999981E-3,-3.537299857E-2,3.052420020E-1
6.623219920E0,-1.984999981E-3,-3.537299857E-2,3.052420020E-1
6.637225924E0,-3.238600120E-2,-2.999499999E-2,1.280409992E-1
6.651232617E0,1.895499974E-2,-2.651900053E-2,1.180239990E-1
6.665240107E0,1.895499974E-2,-2.651900053E-2,1.180239990E-1
6.679246867E0,3.227299824E-2,-4.778999835E-3,2.170629948E-1
6.693252795E0,-2.337899990E-2,1.715599932E-2,2.239730060E-1
6.707259555E0,-2.337899990E-2,1.715599932E-2,2.239730060E-1
6.721267036E0,1.051199995E-2,3.881499916E-2,1.708849967E-1
6.735273819E0,5.675999820E-2,2.880400047E-2,1.778640002E-1
6.749279742E0,3.330700099E-2,-2.240000060E-3,2.138720006E-1
6.763286521E0,3.330700099E-2,-2.240000060E-3,2.138720006E-1
6.777294002E0,-8.264999837E-3,-3.270699829E-2,2.447990030E-1
6.791300698E0,6.440000143E-4,-4.906199872E-2,2.117269933E-1
6.805306707E0,6.440000143E-4,-4.906199872E-2,2.117269933E-1
6.819313496E0,-4.617999773E-3,-1.374700014E-2,2.426899970E-1
6.833320977E0,-3.364000004E-3,-2.110200003E-2,1.755499989E-1
6.847327659E0,-3.364000004E-3,-2.110200003E-2,1.755499989E-1
6.861333684E0,2.299799956E-2,-2.801799960E-2,1.464460045E-1
6.875340348E0,2.110699937E-2,-3.670300171E-2,2.013670057E-1
6.889347882E0,-5.586999934E-3,-2.035900019E-2,1.873420030E-1
6.903354579E0,-5.586999934E-3,-2.035900019E-2,1.873420030E-1
6.917360575E0,-2.259000018E-2,-1.338700019E-2,1.843699962E-1
6.931367267E0,-1.932000043E-3,-1.849999971E-4,1.724209934E-1
6.945374704E0,-1.932000043E-3,-1.849999971E-4,1.724209934E-1
6.959381478E0,1.751999953E-3,7.833999582E-3,2.164680064E-1
6.973387488E0,-1.610900089E-2,2.133500017E-2,1.804530025E-1
6.987394165E0,-1.610900089E-2,2.133500017E-2,1.804530025E-1
7.001401584E0,2.223899961E-2,-1.554400008E-2,1.514240056E-1
7.015408343E0,3.252600133E-2,-1.859200001E-2,1.153969988E-1
7.029414276E0,3.452700004E-2,-2.519400045E-2,1.273760051E-1
7.043421040E0,3.452700004E-2,-2.519400045E-2,1.273760051E-1
7.057428502E0,2.374600060E-2,7.623999845E-3,1.324339956E-1
7.071435227E0,3.122900054E-2,-2.889999887E-3,1.614899933E-1
7.085441154E0,3.122900054E-2,-2.889999887E-3,1.614899933E-1
7.099447920E0,1.185700018E-2,-9.173000231E-3,1.845259964E-1
7.113455385E0,1.642999984E-2,-2.500200085E-2,2.805370092E-1
7.127462092E0,1.642999984E-2,-2.500200085E-2,2.805370092E-1
7.141468122E0,-4.428000189E-3,-5.957999825E-2,2.445459962E-1
7.155474814E0,7.337000221E-3,-4.445699975E-2,2.445690036E-1
7.169482356E0,-1.207500044E-2,-1.268099993E-2,1.636019945E-1
7.183489054E0,-1.207500044E-2,-1.268099993E-2,1.636019945E-1
7.197495073E0,-2.730000066E-3,1.493600011E-2,2.255350053E-1
7.211501804E0,-4.773600027E-2,4.458199814E-2,3.839299828E-2
7.225509357E0,-4.773600027E-2,4.458199814E-2,3.839299828E-2
7.239516020E0,2.839799970E-2,5.569100007E-2,7.750900090E-2
7.253522030E0,-1.110699959E-2,-7.407099754E-2,2.544000149E-1
7.267528707E0,-1.110699959E-2,-7.407099754E-2,2.544000149E-1
7.281536194E0,-4.055099934E-2,-5.897000059E-2,2.283129990E-1
7.295542944E0,1.128800027E-2,-4.241000116E-2,3.163059950E-1
7.309548881E0,-1.926399954E-2,-2.448499948E-2,1.821919978E-1
7.323555641E0,-1.926399954E-2,-2.448499948E-2,1.821919978E-1
7.337563093E0,2.059400082E-2,-1.285700034E-2,7.021400332E-2
7.351569838E0,5.258800089E-2,-1.567300037E-2,1.962970048E-1
7.365575766E0,5.258800089E-2,-1.567300037E-2,1.962970048E-1
7.379582517E0,1.567099988E-2,3.965999931E-3,2.663339972E-1
7.393589982E0,-2.695000032E-3,-9.325999767E-3,2.472649962E-1
7.407596752E0,-2.695000032E-3,-9.325999767E-3,2.472649962E-1
7.421602699E0,2.435199916E-2,-5.450000172E-4,1.682370007E-1
7.435609362E0,2.576600015E-2,2.862500027E-2,1.562809944E-1
7.449616934E0,-6.035000086E-3,1.494500041E-2,1.633490026E-1
7.463623641E0,-6.035000086E-3,1.494500041E-2,1.633490026E-1
7.477629661E0,-1.565200090E-2,-1.692700014E-2,2.044409961E-1
7.491636342E0,1.678999979E-3,-5.715100095E-2,2.684969902E-1
7.505643895E0,1.678999979E-3,-5.715100095E-2,2.684969902E-1
7.519650583E0,7.229999756E-4,-5.135999992E-2,1.925060004E-1
7.533656587E0,-7.823999971E-3,-1.732500084E-2,1.294900030E-1
7.547663284E0,-7.823999971E-3,-1.732500084E-2,1.294900030E-1
7.561670746E0,1.579800062E-2,-2.035499923E-2,2.205320001E-1
7.575677510E0,-1.233800035E-2,-1.110500004E-2,2.046200037E-1
7.589683529E0,-3.141500056E-2,-2.947100066E-2,1.777440012E-1
7.603690218E0,-3.141500056E-2,-2.947100066E-2,1.777440012E-1
7.617697683E0,-1.189999966E-4,-7.040000055E-4,1.809799969E-1
7.631704428E0,2.457600087E-2,9.816999547E-3,2.211830020E-1
7.645710381E0,2.457600087E-2,9.816999547E-3,2.211830020E-1
7.659717150E0,1.145199966E-2,-2.464999910E-3,2.023580074E-1
7.673724587E0,1.014600042E-2,-4.149999935E-3,2.264979929E-1
7.687731338E0,1.014600042E-2,-4.149999935E-3,2.264979929E-1
7.701737295E0,2.648600005E-2,-2.139000036E-2,2.075359970E-1
7.715744045E0,2.568800002E-2,-9.898000397E-3,1.595660001E-1
7.729751488E0,3.943499923E-2,-3.620000090E-3,1.786250025E-1
7.743758175E0,3.943499923E-2,-3.620000090E-3,1.786250025E-1
7.757764165E0,6.808000151E-3,-2.789299935E-2,2.246520072E-1
7.771770857E0,-5.750999786E-3,-4.462600127E-2,2.026250064E-1
7.785778368E0,-5.750999786E-3,-4.462600127E-2,2.026250064E-1
7.799785045E0,-1.571699977E-2,-5.033700168E-2,2.075670063E-1
7.813791050E0,-1.029700041E-2,-4.282600060E-2,1.644950062E-1
7.827797728E0,1.752300002E-2,-2.009399980E-2,1.475290060E-1
7.841805185E0,1.752300002E-2,-2.009399980E-2,1.475290060E-1
7.855811958E0,1.530800015E-2,-1.176900044E-2,2.176309973E-1
7.869817963E0,1.492199954E-2,1.444999943E-3,2.317190021E-1
7.883824642E0,1.492199954E-2,1.444999943E-3,2.317190021E-1
7.897832107E0,-3.106700070E-2,1.130800042E-2,1.934860051E-1
7.911838849E0,-4.299999855E-4,4.411600158E-2,2.043999918E-2
7.925844791E0,-4.299999855E-4,4.411600158E-2,2.043999918E-2
7.939851555E0,5.028999969E-2,1.458400022E-2,1.524959952E-1
7.953859017E0,-1.844399981E-2,-3.582400084E-2,2.453200072E-1
7.967865771E0,-1.844399981E-2,-3.582400084E-2,2.453200072E-1
7.981871690E0,4.440000048E-4,-6.382899731E-2,3.172720075E-1
7.995878410E0,-2.023000084E-2,-5.507399887E-2,3.221369982E-1
8.009885968E0,-2.390100062E-2,-4.296699911E-2,6.796500087E-2
8.023892665E0,-2.390100062E-2,-4.296699911E-2,6.796500087E-2
8.037898660E0,6.932300329E-2,-1.475000009E-2,7.804899663E-2
8.051905348E0,2.755899914E-2,2.291999990E-3,2.601439953E-1
8.065912877E0,2.755899914E-2,2.291999990E-3,2.601439953E-1
8.079919540E0,-1.923199929E-2,-1.126699988E-2,2.931460142E-1
8.093925559E0,1.942400075E-2,5.566999782E-3,2.600849867E-1
8.107932267E0,1.942400075E-2,5.566999782E-3,2.600849867E-1
8.121939733E0,4.401599988E-2,-1.705999952E-3,1.950459927E-1
8.135946458E0,1.318200026E-2,-4.958000034E-3,1.620160043E-1
8.149952392E0,-1.048999955E-3,-1.041799970E-2,1.619759947E-1
8.163959151E0,-1.048999955E-3,-1.041799970E-2,1.619759947E-1
8.177966612E0,1.649600081E-2,-3.847600147E-2,1.969549954E-1
8.191973382E0,-7.296999916E-3,-1.566799916E-2,2.119279951E-1
8.205979334E0,-7.296999916E-3,-1.566799916E-2,2.119279951E-1
8.219986065E0,-9.862000123E-3,-3.567700088E-2,1.808200032E-1
8.233993531E0,1.439000014E-2,-4.267000034E-2,1.757480055E-1
8.248000194E0,1.439000014E-2,-4.267000034E-2,1.757480055E-1
8.262006194E0,2.671499923E-2,-2.861900069E-2,2.166790068E-1
8.276012891E0,-1.329500042E-2,-2.295400016E-2,1.726589948E-1
8.290020435E0,-1.484099962E-2,9.130000137E-3,1.396909952E-1
8.304027127E0,-1.484099962E-2,9.130000137E-3,1.396909952E-1
8.318033122E0,1.457099989E-2,-5.280000041E-4,2.018409967E-1
8.332039791E0,-1.471600030E-2,-2.405999927E-3,2.359409928E-1
8.346047261E0,-1.471600030E-2,-2.405999927E-3,2.359409928E-1
8.360054098E0,-2.333999984E-2,-1.679999987E-3,2.479639947E-1
8.374060036E0,6.891000085E-3,-1.198900025E-2,2.189220041E-1
8.388066819E0,6.891000085E-3,-1.198900025E-2,2.189220041E-1
8.402074280E0,3.588299826E-2,-1.717500016E-2,1.808159947E-1
8.416081031E0,3.154499829E-2,3.280000063E-3,1.757490039E-1
8.430086949E0,3.414100036E-2,-1.450799964E-2,1.807000041E-1
8.444093704E0,3.414100036E-2,-1.450799964E-2,1.807000041E-1
8.458101204E0,2.587500028E-2,-3.649599850E-2,2.086369991E-1
8.472107882E0,1.333000045E-2,-3.582400084E-2,2.165749967E-1
8.486113887E0,1.333000045E-2,-3.582400084E-2,2.165749967E-1
8.500120583E0,1.277500018E-2,-4.873999953E-2,2.404640019E-1
8.514128118E0,2.658000030E-2,-1.203900017E-2,2.113060057E-1
8.528134819E0,2.658000030E-2,-1.203900017E-2,2.113060057E-1
8.542140799E0,-6.380999926E-3,-1.023400016E-2,1.631900072E-1
8.556147445E0,1.284800004E-2,-6.705999840E-3,1.961569935E-1
8.570154896E0,6.717000157E-3,6.647999864E-3,1.841209978E-1
8.584161670E0,6.717000157E-3,6.647999864E-3,1.841209978E-1
8.598167646E0,8.205000311E-3,-1.641399972E-2,2.040040046E-1
8.612174329E0,-2.590000071E-2,5.336999893E-3,1.077829972E-1
8.626181795E0,-2.590000071E-2,5.336999893E-3,1.077829972E-1
8.640188584E0,3.325700015E-2,3.923299909E-2,7.868900150E-2
8.654194559E0,4.061400145E-2,-5.338700116E-2,2.225529999E-1
8.668201295E0,4.061400145E-2,-5.338700116E-2,2.225529999E-1
8.682208756E0,4.592000041E-3,-4.854699969E-2,2.393019944E-1
8.696215444E0,-1.909999992E-3,-3.611699864E-2,3.441779912E-1
8.710221449E0,2.822000068E-3,-3.614699841E-2,2.289720029E-1
8.724228159E0,2.822000068E-3,-3.614699841E-2,2.289720029E-1
8.738235703E0,2.334599942E-2,-3.638799861E-2,8.481399715E-2
8.752242430E0,6.806199998E-2,-2.407800034E-2,1.927230060E-1
8.766248449E0,6.806199998E-2,-2.407800034E-2,1.927230060E-1
8.780255175E0,1.320600044E-2,1.173000038E-2,2.546069920E-1
8.794262709E0,-2.225499973E-2,3.706000000E-2,2.234500051E-1
8.808269425E0,-2.225499973E-2,3.706000000E-2,2.234500051E-1
8.822275444E0,1.762899943E-2,3.241499886E-2,2.262820005E-1
8.836282127E0,2.621099912E-2,3.257999895E-3,2.061430067E-1
8.850289579E0,1.534800045E-2,4.871999845E-3,1.750070006E-1
8.864296280E0,1.534800045E-2,4.871999845E-3,1.750070006E-1
8.878302223E0,1.744600013E-2,-2.292899974E-2,1.658879966E-1
8.892309007E0,3.346899897E-2,-4.474899918E-2,2.687489986E-1
8.906316468E0,3.346899897E-2,-4.474899918E-2,2.687489986E-1
8.920323108E0,2.215499990E-2,-5.110999942E-2,2.016469985E-1
8.934329137E0,1.142899971E-2,-1.501700003E-2,1.985229999E-1
8.948335814E0,1.142899971E-2,-1.501700003E-2,1.985229999E-1
8.962343314E0,2.642600052E-2,-1.079300046E-2,1.653950065E-1
8.976350001E0,2.807600051E-2,-1.279800013E-2,1.793220043E-1
8.990356001E0,1.974599995E-2,5.009999964E-3,2.052789927E-1
9.004362693E0,1.974599995E-2,5.009999964E-3,2.052789927E-1
9.018370261E0,3.105399944E-2,1.762199961E-2,2.082490027E-1
9.032376929E0,-2.401999896E-3,6.041999906E-3,2.132090032E-1
9.046382919E0,-2.401999896E-3,6.041999906E-3,2.132090032E-1
9.060389622E0,6.976999808E-3,1.641999930E-2,1.621669978E-1
9.074397121E0,9.982000105E-3,2.917999960E-2,1.891330034E-1
9.088403890E0,9.982000105E-3,2.917999960E-2,1.891330034E-1
9.102409837E0,4.087699950E-2,-7.488000207E-3,2.220959961E-1
9.116416588E0,4.201800004E-2,-1.517300028E-2,1.960629970E-1
9.130424082E0,1.049999986E-2,1.456199959E-2,1.500349939E-1
9.144430775E0,1.049999986E-2,1.456199959E-2,1.500349939E-1
9.158436775E0,1.197499968E-2,2.106400020E-2,1.190150008E-1
9.172443482E0,5.960000213E-3,1.606000005E-3,1.430040002E-1
9.186451030E0,5.960000213E-3,1.606000005E-3,1.430040002E-1
9.200457727E0,-4.188000225E-3,-4.722999875E-3,2.010030001E-1
9.214463756E0,1.088599954E-2,-2.880799957E-2,1.720049977E-1
9.228470409E0,1.088599954E-2,-2.880799957E-2,1.720049977E-1
9.242477886E0,3.942300007E-2,-2.563099936E-2,2.340119928E-1
9.256484664E0,2.193400078E-2,-7.732000202E-3,2.410160005E-1
9.270490582E0,-1.154000033E-2,1.362899970E-2,2.320200056E-1
9.284497342E0,-1.154000033E-2,1.362899970E-2,2.320200056E-1
9.298504828E0,-1.998200081E-2,5.175999925E-2,1.550499946E-1
9.312511558E0,6.044799834E-2,6.092400104E-2,-4.792499915E-2
9.326517496E0,6.044799834E-2,6.092400104E-2,-4.792499915E-2
9.340524246E0,4.208000004E-2,1.099300012E-2,1.480810046E-1
9.354531717E0,5.065000150E-3,-2.067700028E-2,1.600960046E-1
9.368538415E0,5.065000150E-3,-2.067700028E-2,1.600960046E-1
9.382544400E0,1.969400048E-2,7.528000046E-3,2.251060009E-1
9.396551103E0,8.330999874E-3,-7.197000086E-3,1.481110007E-1
9.410558636E0,1.699299924E-2,-3.500499949E-2,7.909800112E-2
9.424565324E0,1.699299924E-2,-3.500499949E-2,7.909800112E-2
9.438571291E0,3.807400167E-2,-2.222100087E-2,1.980739981E-1
9.452577987E0,-1.992000034E-3,-1.013000030E-3,2.580609918E-1
9.466585440E0,-1.992000034E-3,-1.013000030E-3,2.580609918E-1
9.480592242E0,2.530300058E-2,2.139100060E-2,2.010589987E-1
9.494598199E0,5.619199947E-2,3.159400076E-2,1.380520016E-1
9.508604944E0,5.619199947E-2,3.159400076E-2,1.380520016E-1
9.522612425E0,1.461900026E-2,3.038600087E-2,1.410319954E-1
9.536619131E0,2.650899999E-2,3.483799845E-2,1.790190041E-1
9.550625122E0,2.100099996E-2,1.732599922E-2,1.960120052E-1
9.564631805E0,2.100099996E-2,1.732599922E-2,1.960120052E-1
9.578639358E0,2.392400056E-2,-3.415200114E-2,2.390059978E-1
9.592646051E0,-7.880000048E-4,-1.064599957E-2,2.010030001E-1
9.606652040E0,-7.880000048E-4,-1.064599957E-2,2.010030001E-1
9.620658727E0,1.701099984E-2,-5.758999847E-3,1.500049978E-1
9.634666193E0,2.859400027E-2,-1.683899947E-2,1.550060064E-1
9.648672963E0,2.859400027E-2,-1.683899947E-2,1.550060064E-1
9.662678924E0,3.091900051E-2,1.031600032E-2,1.980060041E-1
9.676685679E0,1.155100018E-2,6.730999798E-3,2.170139998E-1
9.690693107E0,2.965800092E-2,3.400000045E-3,2.170329988E-1
9.704699852E0,2.965800092E-2,3.400000045E-3,2.170329988E-1
9.718705775E0,2.499499917E-2,5.522999913E-3,2.410549968E-1
9.732712540E0,5.729000084E-3,3.310000151E-2,1.480800062E-1
9.746719997E0,5.729000084E-3,3.310000151E-2,1.480800062E-1
9.760726698E0,2.972500026E-2,5.280499905E-2,1.841080040E-1
9.774732694E0,4.711399972E-2,4.903599992E-2,1.651349962E-1
9.788739344E0,4.711399972E-2,4.903599992E-2,1.651349962E-1
9.802746896E0,3.281899914E-2,2.918599918E-2,1.671680063E-1
9.816753598E0,2.629699931E-2,-3.866000101E-3,2.081979960E-1
9.830759507E0,4.455799982E-2,-5.289999768E-3,2.342199981E-1
9.844766286E0,4.455799982E-2,-5.289999768E-3,2.342199981E-1
9.858773747E0,3.335599974E-2,-7.091999985E-3,1.982399970E-1
9.872780527E0,4.896999802E-3,1.352000050E-3,2.132630050E-1
9.886786421E0,4.896999802E-3,1.352000050E-3,2.132630050E-1
9.900793170E0,1.527000032E-2,7.670000196E-4,1.912789941E-1
9.914800637E0,3.262599930E-2,-5.226000212E-3,1.623010039E-1
9.928807344E0,3.262599930E-2,-5.226000212E-3,1.623010039E-1
9.942813372E0,3.890100121E-2,4.726000130E-3,2.053429931E-1
9.956820060E0,1.804300025E-2,2.297399938E-2,1.933979988E-1
9.970827536E0,5.801999941E-3,-1.279900037E-2,2.254260033E-1
9.984834295E0,5.801999941E-3,-1.279900037E-2,2.254260033E-1
9.998840305E0,-2.404199913E-2,6.582099944E-2,1.024210006E-1
1.001284700E1,7.236599922E-2,9.837199748E-2,1.124560013E-1
1.002685444E1,7.236599922E-2,9.837199748E-2,1.124560013E-1
1.004086122E1,1.840700023E-2,-1.058600005E-2,2.484550029E-1
1.005486717E1,2.130000066E-4,-1.992500015E-2,2.104460001E-1
1.006887393E1,2.130000066E-4,-1.992500015E-2,2.104460001E-1
1.008288140E1,2.482300065E-2,-3.031400032E-2,3.664200008E-1
1.009688810E1,-3.111999948E-3,-1.907699928E-2,1.963739991E-1
1.011089411E1,3.776500002E-2,-1.244000043E-3,5.936200172E-2
1.012490079E1,3.776500002E-2,-1.244000043E-3,5.936200172E-2
1.013890831E1,8.099099994E-2,1.881100051E-2,1.483889967E-1
1.015291498E1,-1.769999973E-3,2.515899949E-2,2.254180014E-1
1.016692098E1,-1.769999973E-3,2.515899949E-2,2.254180014E-1
1.018092767E1,-4.606000148E-3,5.040600151E-2,1.984300017E-1
1.019493515E1,4.862000048E-2,3.018400073E-2,1.504479945E-1
1.020894192E1,3.801099956E-2,2.855399996E-2,1.604820043E-1
1.022294784E1,3.801099956E-2,2.855399996E-2,1.604820043E-1
1.023695465E1,9.572000243E-3,3.782999888E-2,2.085489929E-1
1.025096208E1,3.079699911E-2,1.383200008E-2,2.176039964E-1
1.026496877E1,3.079699911E-2,1.383200008E-2,2.176039964E-1
1.027897475E1,1.104099955E-2,-4.933200032E-2,2.806330025E-1
1.029298144E1,2.147999965E-2,-2.138400078E-2,1.866820008E-1
1.030698898E1,2.147999965E-2,-2.138400078E-2,1.866820008E-1
1.032099567E1,3.165999893E-3,2.385899983E-2,1.297030002E-1
1.033500168E1,1.786099933E-2,2.366800047E-2,1.487260014E-1
1.034900837E1,3.077900037E-2,1.945099980E-2,2.137680054E-1
1.036301583E1,3.077900037E-2,1.945099980E-2,2.137680054E-1
1.037702263E1,8.267000318E-3,2.141200006E-2,2.278520018E-1
1.039102856E1,2.831299976E-2,2.196999965E-3,1.849280000E-1
1.040503531E1,2.831299976E-2,2.196999965E-3,1.849280000E-1
1.041904277E1,4.476699978E-2,3.123299964E-2,2.280180007E-1
1.043304944E1,1.233400032E-2,4.173700139E-2,1.821150035E-1
1.044705541E1,1.233400032E-2,4.173700139E-2,1.821150035E-1
1.046106212E1,9.016999975E-3,3.851899877E-2,1.921879947E-1
1.047506967E1,4.373100027E-2,-1.332000014E-3,2.042430043E-1
1.048907637E1,5.037600175E-2,6.831000093E-3,2.472590059E-1
1.050308238E1,5.037600175E-2,6.831000093E-3,2.472590059E-1
1.051708909E1,3.636199981E-2,9.007999673E-3,1.822620034E-1
1.053109658E1,2.905900031E-2,1.391599979E-2,2.062589973E-1
1.054510337E1,2.905900031E-2,1.391599979E-2,2.062589973E-1
1.055910928E1,2.832300030E-2,1.199799962E-2,1.702560037E-1
1.057311607E1,1.643699966E-2,6.335000042E-3,1.782770008E-1
1.058712353E1,1.643699966E-2,6.335000042E-3,1.782770008E-1
1.060113022E1,3.666999983E-3,-5.990000209E-4,1.992900074E-1
1.061513624E1,1.250899956E-2,3.284000093E-3,1.902980059E-1
1.062914292E1,2.594999969E-2,1.177699957E-2,1.993190050E-1
1.064315039E1,2.594999969E-2,1.177699957E-2,1.993190050E-1
1.065715716E1,3.654199839E-2,4.939499870E-2,1.853370070E-1
1.067116308E1,1.848999970E-2,4.619000107E-2,1.753609926E-1
1.068516983E1,1.848999970E-2,4.619000107E-2,1.753609926E-1
1.069917729E1,5.585499853E-2,2.974599972E-2,1.594139934E-1
1.071318407E1,3.461699933E-2,2.973099984E-2,2.025050074E-1
1.072718996E1,3.461699933E-2,2.973099984E-2,2.025050074E-1
1.074119665E1,3.795100003E-2,-9.301000275E-3,2.425740063E-1
1.075520417E1,-5.162000190E-3,1.191200037E-2,2.525149882E-1
1.076921086E1,2.739300020E-2,8.086299896E-2,6.848199666E-2
1.078321686E1,2.739300020E-2,8.086299896E-2,6.848199666E-2
1.079722354E1,2.747000009E-2,2.992000058E-2,1.784500033E-1
1.081123098E1,8.841999806E-3,-3.277499974E-2,2.233729959E-1
1.082523775E1,8.841999806E-3,-3.277499974E-2,2.233729959E-1
1.083924368E1,1.340499986E-2,-4.200699925E-2,3.483290076E-1
1.085325047E1,-2.926599979E-2,6.998000201E-3,2.351689935E-1
1.086725791E1,-2.926599979E-2,6.998000201E-3,2.351689935E-1
1.088126463E1,2.498999983E-2,1.625199988E-2,4.108799994E-2
1.089527063E1,8.341900259E-2,2.950599976E-2,9.411200136E-2
1.090927730E1,5.774400011E-2,1.798200049E-2,2.491540015E-1
1.092328481E1,5.774400011E-2,1.798200049E-2,2.491540015E-1
1.093729152E1,9.452999569E-3,4.496800154E-2,2.661420107E-1
1.095129754E1,1.577600092E-2,6.319899857E-2,1.611140072E-1
1.096530424E1,1.577600092E-2,6.319899857E-2,1.611140072E-1
1.097931170E1,3.811600059E-2,4.295700043E-2,1.321119964E-1
1.099331845E1,-1.886000042E-3,2.605799958E-2,1.701759994E-1
1.100732439E1,-1.886000042E-3,2.605799958E-2,1.701759994E-1
1.102133114E1,-8.495000191E-3,-5.019999808E-4,1.922450066E-1
1.103533860E1,1.356600039E-2,-3.215900064E-2,2.262959927E-1
1.104934530E1,3.470999887E-3,-6.091000047E-3,2.493389994E-1
1.106335129E1,3.470999887E-3,-6.091000047E-3,2.493389994E-1
1.107735800E1,7.677999791E-3,-5.138000008E-3,1.753380001E-1
1.109136552E1,4.938099906E-2,-1.677300036E-2,1.733379960E-1
1.110537219E1,4.938099906E-2,-1.677300036E-2,1.733379960E-1
1.111937814E1,3.620800003E-2,2.564599924E-2,2.043640018E-1
1.113338492E1,-9.369999752E-4,4.368599877E-2,2.044499964E-1
1.114739237E1,-9.369999752E-4,4.368599877E-2,2.044499964E-1
1.116139904E1,-2.627999987E-3,1.646200009E-2,1.995249987E-1
1.117540503E1,3.273800015E-2,2.747399919E-2,2.066069990E-1
1.118941182E1,1.548600011E-2,3.129300103E-2,2.216839939E-1
1.120341929E1,1.548600011E-2,3.129300103E-2,2.216839939E-1
1.121742595E1,-1.776000019E-3,3.307899833E-2,2.147250026E-1
1.123143198E1,2.121699974E-2,1.203100011E-2,2.217189968E-1
1.124543870E1,2.121699974E-2,1.203100011E-2,2.217189968E-1
1.125944614E1,8.361999877E-3,1.596199907E-2,1.616819948E-1
1.127345291E1,3.031799942E-2,1.264899969E-2,1.906770021E-1
1.128745883E1,3.031799942E-2,1.264899969E-2,1.906770021E-1
1.130146560E1,1.658499986E-2,1.014399994E-2,1.906580031E-1
1.131547308E1,-1.170999953E-3,2.231999999E-3,1.926259995E-1
1.132947976E1,2.676999895E-3,7.315000053E-3,2.475859970E-1
1.134348574E1,2.676999895E-3,7.315000053E-3,2.475859970E-1
1.135749244E1,3.530399874E-2,-3.295999952E-3,2.305079997E-1
1.137149995E1,1.545699965E-2,2.194800042E-2,1.854480058E-1
1.138550666E1,1.545699965E-2,2.194800042E-2,1.854480058E-1
1.139951257E1,1.359700039E-2,2.434200048E-2,1.853969991E-1
1.141351934E1,1.585300080E-2,4.011600092E-2,1.993319988E-1
1.142752681E1,1.585300080E-2,4.011600092E-2,1.993319988E-1
1.144153359E1,6.155999843E-3,3.596400097E-2,2.022559941E-1
1.145553949E1,2.485799976E-2,4.153599963E-2,1.851760000E-1
1.146954619E1,3.053399920E-2,2.124400064E-2,1.471219957E-1
1.148355373E1,3.053399920E-2,2.124400064E-2,1.471219957E-1
1.149756043E1,3.099800088E-2,2.877499908E-2,2.330980003E-1
1.151156644E1,2.870400064E-2,2.825899981E-2,2.610900104E-1
1.152557315E1,2.870400064E-2,2.825899981E-2,2.610900104E-1
1.153958061E1,-3.806999885E-3,-3.468599916E-2,2.779729962E-1
1.155358740E1,-1.848600060E-2,4.338600114E-2,6.283400208E-2
1.156759330E1,-1.848600060E-2,4.338600114E-2,6.283400208E-2
1.158160006E1,4.086099938E-2,4.026399925E-2,9.376200289E-2
1.159560753E1,2.862999914E-3,-3.350000083E-2,1.966439933E-1
1.160961421E1,1.445799973E-2,-5.607999861E-3,2.945570052E-1
1.162362024E1,1.445799973E-2,-5.607999861E-3,2.945570052E-1
1.163762693E1,1.077399962E-2,9.681000374E-3,3.164240122E-1
1.165163437E1,5.756999832E-3,3.988099843E-2,1.053199992E-1
1.166564115E1,5.756999832E-3,3.988099843E-2,1.053199992E-1
1.167964707E1,5.292300135E-2,2.980500087E-2,4.526399821E-2
1.169365384E1,5.641100183E-2,3.572199866E-2,1.602330059E-1
1.170766130E1,5.641100183E-2,3.572199866E-2,1.602330059E-1
1.172166807E1,-7.019999903E-4,4.935799912E-2,2.291810066E-1
1.173567396E1,3.153900057E-2,3.797399998E-2,2.101379931E-1
1.174968066E1,3.816299886E-2,5.136600137E-2,1.771059930E-1
1.176368820E1,3.816299886E-2,5.136600137E-2,1.771059930E-1
1.177769491E1,1.578699984E-2,3.960200027E-2,1.480839998E-1
1.179170084E1,-1.799999923E-2,6.765999831E-3,1.550720036E-1
1.180570762E1,-1.799999923E-2,6.765999831E-3,1.550720036E-1
1.181971510E1,3.505999921E-3,-1.776999980E-2,2.030649930E-1
1.183372183E1,1.127799973E-2,-3.239199892E-2,2.990539968E-1
1.184772776E1,1.127799973E-2,-3.239199892E-2,2.990539968E-1
1.186173454E1,-2.939200029E-2,2.898999956E-3,2.100320011E-1
1.187574196E1,2.067000046E-2,1.936399937E-2,1.360149980E-1
1.188974866E1,4.750199988E-2,2.562399954E-2,1.290120035E-1
1.190375461E1,4.750199988E-2,2.562399954E-2,1.290120035E-1
1.191776129E1,2.433300018E-2,4.740199819E-2,1.860149950E-1
1.193176875E1,2.355900034E-2,4.681900144E-2,1.980189979E-1
1.194577553E1,2.355900034E-2,4.681900144E-2,1.980189979E-1
1.195978149E1,4.200299829E-2,2.087000012E-2,1.910219938E-1
1.197378827E1,2.182099968E-2,5.218800157E-2,2.010239959E-1
1.198779569E1,2.182099968E-2,5.218800157E-2,2.010239959E-1
1.200180240E1,3.423999995E-3,7.104100287E-2,1.190249994E-1
1.201580840E1,1.269099955E-2,6.612599641E-2,1.170279980E-1
1.202981511E1,3.797800094E-2,3.222000087E-3,1.120299995E-1
1.204382258E1,3.797800094E-2,3.222000087E-3,1.120299995E-1
1.205782937E1,8.845999837E-3,2.144600078E-2,1.260319948E-1
1.207183530E1,6.490999833E-3,3.814999945E-3,1.580400020E-1
1.208584205E1,6.490999833E-3,3.814999945E-3,1.580400020E-1
1.209984954E1,1.295300014E-2,-4.676999990E-3,1.500490010E-1
1.211385625E1,2.201800048E-2,3.773000091E-3,1.930660009E-1
1.212786224E1,2.367500030E-2,1.512899995E-2,2.170860022E-1
1.214186895E1,2.367500030E-2,1.512899995E-2,2.170860022E-1
1.215587642E1,3.453899920E-2,1.195500046E-2,1.311189979E-1
1.216988319E1,3.071800061E-2,4.170000181E-2,1.531559974E-1
1.218388910E1,3.071800061E-2,4.170000181E-2,1.531559974E-1
1.219789592E1,2.625299990E-2,3.616800159E-2,1.742220074E-1
1.221190337E1,5.340699852E-2,3.361300007E-2,2.442940027E-1
1.222591006E1,5.340699852E-2,3.361300007E-2,2.442940027E-1
1.223991606E1,3.574300185E-2,3.649900109E-2,2.583610117E-1
1.225392276E1,3.283000086E-3,4.939800128E-2,2.324279994E-1
1.226793028E1,3.283000086E-3,4.939800128E-2,2.324279994E-1
1.228193698E1,-6.194000132E-3,4.441799968E-2,1.794179976E-1
1.229594290E1,4.640100151E-2,6.233999878E-2,3.143500164E-2
1.230994966E1,5.222300068E-2,2.617999911E-2,2.155019939E-1
1.232395713E1,5.222300068E-2,2.617999911E-2,2.155019939E-1
1.233796392E1,-1.344900019E-2,-6.424999982E-2,3.045130074E-1
1.235196986E1,3.059500083E-2,-5.036199838E-2,3.805299997E-1
1.236597653E1,3.059500083E-2,-5.036199838E-2,3.805299997E-1
1.237998407E1,8.116999641E-3,-3.168199956E-2,2.895100117E-1
1.239399075E1,-4.213599861E-2,4.120400175E-2,6.747300178E-2
1.240799673E1,-4.213599861E-2,4.120400175E-2,6.747300178E-2
1.242200340E1,3.892799839E-2,5.000400171E-2,2.853200026E-2
1.243601088E1,3.249799833E-2,5.361200124E-2,1.726049930E-1
1.245001767E1,1.823600009E-2,5.021600053E-2,2.346680015E-1
1.246402357E1,1.823600009E-2,5.021600053E-2,2.346680015E-1
1.247803028E1,2.020700090E-2,3.674000129E-2,2.207379937E-1
1.249203780E1,4.774999991E-2,5.134300143E-2,1.698109955E-1
1.250604450E1,4.774999991E-2,5.134300143E-2,1.698109955E-1
1.252005044E1,3.245000169E-2,5.533799902E-2,1.628970057E-1
1.253405723E1,4.455500096E-2,3.833699971E-2,1.300030053E-1
1.254806468E1,4.455500096E-2,3.833699971E-2,1.300030053E-1
1.256207144E1,2.699800022E-2,-1.807300001E-2,1.201959997E-1
1.257607740E1,1.279800013E-2,-1.502699964E-2,2.493949980E-1
1.259008407E1,8.462999947E-3,-2.565399930E-2,2.335460037E-1
1.260409160E1,8.462999947E-3,-2.565399930E-2,2.335460037E-1
1.261809829E1,1.305999979E-2,1.685900055E-2,1.826699972E-1
1.263210431E1,4.531100020E-2,5.235400051E-2,1.258060038E-1
1.264611105E1,4.531100020E-2,5.235400051E-2,1.258060038E-1
1.266011843E1,6.725000218E-3,4.720899835E-2,1.210080013E-1
1.267412513E1,-1.997200027E-2,6.626900285E-2,1.483079940E-1
1.268813112E1,-1.997200027E-2,6.626900285E-2,1.483079940E-1
1.270213792E1,4.129799828E-2,2.551599964E-2,2.036859989E-1
1.271614539E1,1.372199971E-2,3.704699874E-2,2.319480032E-1
1.273015209E1,4.964000080E-3,4.416900128E-2,2.681730092E-1
1.274415806E1,4.964000080E-3,4.416900128E-2,2.681730092E-1
1.275816475E1,1.677400060E-2,1.241299976E-2,2.543610036E-1
1.277217224E1,1.703000069E-2,-1.473800000E-2,1.704560071E-1
1.278617897E1,1.703000069E-2,-1.473800000E-2,1.704560071E-1
1.280018490E1,2.865299955E-2,-2.806499973E-2,1.565530002E-1
1.281419160E1,4.022200033E-2,-1.834299974E-2,1.446879953E-1
1.282819912E1,4.022200033E-2,-1.834299974E-2,1.446879953E-1
1.284220580E1,2.431800030E-2,-1.372900046E-2,1.998939961E-1
1.285621181E1,-1.103600021E-2,-2.209299989E-2,2.190719992E-1
1.287021850E1,-2.752099931E-2,-1.002600044E-2,2.432350069E-1
1.288422598E1,-2.752099931E-2,-1.002600044E-2,2.432350069E-1
1.289823273E1,-2.554499917E-2,-2.332900092E-2,1.764149964E-1
1.291223865E1,-1.467199996E-2,5.574999843E-3,1.935739964E-1
1.292624539E1,-1.467199996E-2,5.574999843E-3,1.935739964E-1
1.294025284E1,3.041700087E-2,1.445399970E-2,2.126969993E-1
1.295425954E1,1.182200015E-2,3.227600083E-2,1.888229996E-1
1.296826557E1,1.182200015E-2,3.227600083E-2,1.888229996E-1
1.298227223E1,1.105399989E-2,1.110100001E-2,2.250429988E-1
1.299627969E1,7.315999828E-3,-9.401000105E-3,2.682160139E-1
1.301028645E1,9.889999637E-4,-2.271400020E-2,1.772589982E-1
1.302429236E1,9.889999637E-4,-2.271400020E-2,1.772589982E-1
1.303829906E1,-3.714000061E-2,3.315699846E-2,1.052829996E-1
1.305230659E1,4.025299847E-2,5.357600003E-2,1.465650052E-1
1.306631324E1,4.025299847E-2,5.357600003E-2,1.465650052E-1
1.308031924E1,2.580899931E-2,-3.716199845E-2,3.066410124E-1
1.309432593E1,1.076100022E-2,-6.533300132E-2,3.375599980E-1
1.310833341E1,1.076100022E-2,-6.533300132E-2,3.375599980E-1
1.312234010E1,2.865999937E-3,-7.937700301E-2,3.354139924E-1
1.313634611E1,-1.121199969E-2,-4.846899956E-2,2.652339935E-1
1.315035277E1,4.489000142E-2,4.445000086E-3,2.341340035E-1
1.316436028E1,4.489000142E-2,4.445000086E-3,2.341340035E-1
1.317836698E1,3.607400134E-2,5.348699912E-2,1.429930031E-1
1.319237295E1,-2.315999940E-3,6.364600360E-2,7.582099736E-2
1.320637966E1,-2.315999940E-3,6.364600360E-2,7.582099736E-2
1.322038712E1,6.727000233E-3,6.157600135E-2,9.480500221E-2
1.323439381E1,3.356400132E-2,8.544100076E-2,2.128690034E-1
1.324839984E1,3.356400132E-2,8.544100076E-2,2.128690034E-1
1.326240654E1,3.380800039E-2,3.879800066E-2,3.248539865E-1
1.327641408E1,-1.282399986E-2,4.281000048E-2,3.037739992E-1
1.329042076E1,2.973500080E-2,1.104099955E-2,2.336629927E-1
1.330442679E1,2.973500080E-2,1.104099955E-2,2.336629927E-1
1.331843348E1,4.282699898E-2,-2.713900059E-2,1.405369937E-1
1.333244096E1,1.970499940E-2,7.801999804E-3,1.114770025E-1
1.334644766E1,1.970499940E-2,7.801999804E-3,1.114770025E-1
1.336045369E1,4.448100179E-2,-9.283999912E-3,1.884710044E-1
1.337446039E1,2.956200019E-2,-3.489000024E-3,2.624799907E-1
1.338846787E1,2.956200019E-2,-3.489000024E-3,2.624799907E-1
1.340247463E1,1.001899969E-2,1.636599936E-2,2.484550029E-1
1.341648055E1,2.176200040E-2,5.153900012E-2,2.074040025E-1
1.343048732E1,1.332100015E-2,3.762599826E-2,1.593469977E-1
1.344449481E1,1.332100015E-2,3.762599826E-2,1.593469977E-1
1.345850151E1,3.828800097E-2,6.676000077E-3,1.813620031E-1
1.347250751E1,1.004500035E-2,4.365500063E-2,2.363840044E-1
1.348651417E1,1.004500035E-2,4.365500063E-2,2.363840044E-1
1.350052169E1,1.640100032E-2,2.649799921E-2,2.603709996E-1
1.351452843E1,6.736099720E-2,1.372199971E-2,2.572839856E-1
1.352853433E1,6.736099720E-2,1.372199971E-2,2.572839856E-1
1.354254108E1,1.402099989E-2,1.733499952E-2,1.590339988E-1
1.355654852E1,2.240600064E-2,3.206299990E-2,1.468539983E-1
1.357055520E1,5.554800108E-2,3.940999974E-3,1.846909970E-1
1.358456124E1,5.554800108E-2,3.940999974E-3,1.846909970E-1
1.359856790E1,2.438200079E-2,-1.750000054E-3,1.616140008E-1
1.361257537E1,-1.966499910E-2,1.710099913E-2,2.545729876E-1
1.362658215E1,-1.966499910E-2,1.710099913E-2,2.545729876E-1
1.364058806E1,-1.012500003E-2,4.185599834E-2,2.474669963E-1
1.365459483E1,4.865000024E-3,4.693900049E-2,1.563059986E-1
1.366860232E1,4.865000024E-3,4.693900049E-2,1.563059986E-1
1.368260898E1,6.173900142E-2,-2.357000019E-3,7.722099870E-2
1.369661503E1,4.499899969E-2,1.357899979E-2,1.633179933E-1
1.371062170E1,2.107400075E-2,4.781100154E-2,2.994379997E-1
1.372462914E1,2.107400075E-2,4.781100154E-2,2.994379997E-1
1.373863590E1,3.822499886E-2,5.564000085E-2,2.664699852E-1
1.375264184E1,1.131500024E-2,1.570500061E-2,2.132939994E-1
1.376664854E1,1.131500024E-2,1.570500061E-2,2.132939994E-1
1.378065613E1,-8.318999782E-3,3.717000037E-2,4.306099936E-2
1.379466278E1,4.710099846E-2,5.156499892E-2,4.999100044E-2
1.380866871E1,4.710099846E-2,5.156499892E-2,4.999100044E-2
1.382267547E1,1.748000085E-2,-2.533400059E-2,2.658450007E-1
1.383668294E1,-1.713800058E-2,-4.233999923E-2,3.307020068E-1
1.385068965E1,3.480999963E-3,-4.433200136E-2,3.945290148E-1
1.386469564E1,3.480999963E-3,-4.433200136E-2,3.945290148E-1
1.387870230E1,9.350000182E-4,-7.965000346E-3,2.032449991E-1
1.389270987E1,2.012299933E-2,2.884000074E-3,-1.994300075E-2
1.390671654E1,2.012299933E-2,2.884000074E-3,-1.994300075E-2
1.392072245E1,4.277700186E-2,1.224000007E-2,1.450680047E-1
1.393472923E1,-2.296799980E-2,4.425600171E-2,3.340620100E-1
1.394873673E1,-2.296799980E-2,4.425600171E-2,3.340620100E-1
1.396274345E1,-1.521399990E-2,7.795599848E-2,3.319199979E-1
1.397674945E1,1.653599925E-2,6.815899909E-2,1.517820060E-1
1.399075617E1,4.966999963E-2,5.304399878E-2,9.668900073E-2
1.400476361E1,4.966999963E-2,5.304399878E-2,9.668900073E-2
1.401877038E1,7.291699946E-2,4.829199985E-2,1.276360005E-1
1.403277630E1,4.798899963E-2,2.581300028E-2,1.996050030E-1
1.404678299E1,4.798899963E-2,2.581300028E-2,1.996050030E-1
1.406079057E1,2.750599943E-2,-2.724000020E-3,2.335619926E-1
1.407479724E1,-2.831700072E-2,-3.426000010E-3,1.444830000E-1
1.408880324E1,-2.831700072E-2,-3.426000010E-3,1.444830000E-1
1.410280993E1,-2.871999983E-3,2.267399989E-2,1.493490040E-1
1.411681740E1,4.199700058E-2,8.367000148E-3,2.232510000E-1
1.413082419E1,6.021900102E-2,1.766600087E-2,1.901669949E-1
1.414483011E1,6.021900102E-2,1.766600087E-2,1.901669949E-1
1.415883677E1,4.858100042E-2,2.738700062E-2,1.821399927E-1
1.417284432E1,1.489499956E-2,2.752099931E-2,1.901440024E-1
1.418685098E1,1.489499956E-2,2.752099931E-2,1.901440024E-1
1.420085689E1,1.747800037E-2,4.630000144E-2,2.451370060E-1
1.421486364E1,2.407599986E-2,3.707300127E-2,2.330899984E-1
1.422887110E1,2.407599986E-2,3.707300127E-2,2.330899984E-1
1.424287782E1,4.221000150E-2,4.694899917E-2,2.210469991E-1
1.425688380E1,3.138900176E-2,4.242600128E-2,2.729850113E-1
1.427089048E1,2.615099959E-2,1.405199990E-2,2.178869992E-1
1.428489794E1,2.615099959E-2,1.405199990E-2,2.178869992E-1
1.429890470E1,9.684000164E-3,2.988000028E-2,1.027880013E-1
1.431291061E1,9.735999629E-3,4.837400094E-2,5.271799862E-2
1.432691730E1,9.735999629E-3,4.837400094E-2,5.271799862E-2
1.434092481E1,1.365800016E-2,3.256199881E-2,8.168999851E-2
1.435493150E1,7.790999953E-3,1.997000072E-3,1.366730034E-1
1.436893749E1,1.973499916E-2,-1.724299975E-2,1.466799974E-1
1.438294416E1,1.973499916E-2,-1.724299975E-2,1.466799974E-1
1.439695162E1,4.285199940E-2,-7.449000143E-3,2.297330052E-1
1.441095829E1,1.404600032E-2,3.240200132E-2,2.107760012E-1
1.442496431E1,1.404600032E-2,3.240200132E-2,2.107760012E-1
1.443897099E1,1.807199977E-2,2.209299989E-2,1.897899956E-1
1.445297848E1,-1.080599986E-2,8.406600356E-2,-2.274000086E-3
1.446698527E1,-1.080599986E-2,8.406600356E-2,-2.274000086E-3
1.448099118E1,1.032589972E-1,9.062799811E-2,4.378600046E-2
1.449499795E1,4.086000100E-2,4.513000138E-3,2.878099978E-1
1.450900542E1,-1.397799980E-2,-2.792900056E-2,2.827680111E-1
1.452301213E1,-1.397799980E-2,-2.792900056E-2,2.827680111E-1
1.453701810E1,1.893500052E-2,1.998700015E-2,3.737489879E-1
1.455102482E1,-9.500000160E-4,4.921400174E-2,1.866810024E-1
1.456503227E1,-9.500000160E-4,4.921400174E-2,1.866810024E-1
1.457903906E1,1.658600010E-2,1.396100037E-2,2.665499970E-2
1.459304496E1,4.210299999E-2,1.460899971E-2,1.387230009E-1
1.460705168E1,4.210299999E-2,1.460899971E-2,1.387230009E-1
1.462105927E1,-1.739200018E-2,3.113199957E-2,2.327760011E-1
1.463506594E1,6.194000132E-3,2.849500068E-2,2.058009952E-1
1.464907195E1,1.940900087E-2,4.188700020E-2,1.848479956E-1
1.466307862E1,1.940900087E-2,4.188700020E-2,1.848479956E-1
1.467708606E1,3.427600116E-2,5.022799969E-2,1.849420071E-1
1.469109275E1,-1.329800021E-2,3.644800186E-2,1.990109980E-1
1.470509875E1,-1.329800021E-2,3.644800186E-2,1.990109980E-1
1.471910545E1,3.801000072E-3,2.729300037E-2,1.800819933E-1
1.473311291E1,6.029399857E-2,1.320699975E-2,2.331839949E-1
1.474711971E1,6.029399857E-2,1.320699975E-2,2.331839949E-1
1.476112562E1,1.878900081E-2,5.559999961E-3,2.042569965E-1
1.477513241E1,1.667499915E-2,1.417099964E-2,1.592970043E-1
1.478913986E1,1.595200039E-2,-5.793999881E-3,1.873420030E-1
1.480314661E1,1.595200039E-2,-5.793999881E-3,1.873420030E-1
1.481715253E1,2.893999917E-3,2.856899984E-2,2.024209946E-1
1.483115926E1,-2.319999970E-3,2.103799954E-2,2.335180044E-1
1.484516672E1,-2.319999970E-3,2.103799954E-2,2.335180044E-1
1.485917341E1,1.513400022E-2,1.993099973E-2,2.216410041E-1
1.487317939E1,2.223600075E-2,3.934299946E-2,2.407640070E-1
1.488718610E1,2.223600075E-2,3.934299946E-2,2.407640070E-1
1.490119355E1,-1.069799997E-2,2.144099958E-2,1.738270074E-1
1.491520030E1,-8.787999861E-3,3.653699905E-2,1.828979999E-1
1.492920622E1,2.595200017E-2,2.439999953E-2,1.859560013E-1
1.494321289E1,2.595200017E-2,2.439999953E-2,1.859560013E-1
1.495722044E1,2.707099915E-2,4.372999817E-2,1.739899963E-1
1.497122711E1,2.669399977E-2,3.251799941E-2,1.980379969E-1
1.498523299E1,2.669399977E-2,3.251799941E-2,1.980379969E-1
1.499923968E1,4.587500170E-2,2.228599973E-2,2.100729942E-1
1.501324710E1,2.630599961E-2,6.266999990E-3,1.830690056E-1
1.502725379E1,2.630599961E-2,6.266999990E-3,1.830690056E-1
1.504125978E1,2.714000084E-2,3.840999911E-3,1.240999997E-1
1.505526647E1,3.655600175E-2,8.868999779E-3,1.762170047E-1
1.506927393E1,3.156600147E-2,2.036700025E-2,2.723630071E-1
1.508328073E1,3.156600147E-2,2.036700025E-2,2.723630071E-1
1.509728660E1,-4.854999948E-3,-3.490000032E-3,2.674030066E-1
1.511129328E1,-3.526499867E-2,4.342399910E-2,1.162879989E-1
1.512530081E1,-3.526499867E-2,4.342399910E-2,1.162879989E-1
1.513930749E1,3.561199829E-2,9.082700312E-2,-5.675000139E-3
1.515331344E1,1.177799981E-2,2.394700050E-2,2.293290049E-1
1.516732026E1,1.177799981E-2,2.394700050E-2,2.293290049E-1
1.518132767E1,-2.375900000E-2,4.151999950E-3,2.362599969E-1
1.519533445E1,1.455499977E-2,-1.544499956E-2,4.202510118E-1
1.520934045E1,-6.859999849E-4,-1.686000079E-2,2.891150117E-1
1.522334713E1,-6.859999849E-4,-1.686000079E-2,2.891150117E-1
1.523735463E1,3.931200132E-2,7.428999990E-3,4.202099890E-2
1.525136132E1,8.036699891E-2,6.800999865E-3,1.330389977E-1
1.526536730E1,8.036699891E-2,6.800999865E-3,1.330389977E-1
1.527937399E1,3.008100018E-2,2.982700057E-2,2.410490066E-1
1.529338142E1,1.155100018E-2,5.864100158E-2,2.119960040E-1
1.530738821E1,1.155100018E-2,5.864100158E-2,2.119960040E-1
1.532139413E1,2.665299922E-2,3.570799902E-2,1.519789994E-1
1.533540090E1,1.276099961E-2,5.456599966E-2,1.280220002E-1
1.534940837E1,5.115000065E-3,4.621699825E-2,2.051029950E-1
1.536341505E1,5.115000065E-3,4.621699825E-2,2.051029950E-1
1.537742094E1,1.694400050E-2,1.641199924E-2,2.051829994E-1
1.539142771E1,3.435999900E-2,-2.286499925E-2,2.462240010E-1
1.540543516E1,3.435999900E-2,-2.286499925E-2,2.462240010E-1
1.541944188E1,4.387999885E-3,9.519999730E-4,2.052890062E-1
1.543344790E1,9.515999816E-3,8.356999606E-3,1.763059944E-1
1.544745461E1,9.515999816E-3,8.356999606E-3,1.763059944E-1
1.546146205E1,3.153200075E-2,7.474000100E-3,1.693290025E-1
1.547546880E1,2.633699961E-2,1.801200025E-2,2.293750048E-1
1.548947473E1,-4.838000052E-3,4.295700043E-2,2.174579948E-1
1.550348145E1,-4.838000052E-3,4.295700043E-2,2.174579948E-1
1.551748894E1,2.434000000E-2,3.316700086E-2,2.075860053E-1
1.553149575E1,5.164299905E-2,3.390400112E-2,2.007170022E-1
1.554550167E1,5.164299905E-2,3.390400112E-2,2.007170022E-1
1.555950844E1,7.906000130E-3,4.206499830E-2,2.078289986E-1
1.557351589E1,2.149999927E-4,2.340500057E-2,2.298939973E-1
1.558752258E1,2.149999927E-4,2.340500057E-2,2.298939973E-1
1.560152857E1,4.544600099E-2,3.867000109E-3,2.059520036E-1
1.561553533E1,3.030299954E-2,2.663400024E-2,2.229589969E-1
1.562954277E1,1.972600073E-2,2.736300044E-2,1.959699988E-1
1.564354944E1,1.972600073E-2,2.736300044E-2,1.959699988E-1
1.565755544E1,2.382300049E-2,-5.700999871E-3,1.819829941E-1
1.567156212E1,1.040199958E-2,6.645999849E-3,1.559779942E-1
1.568556956E1,1.040199958E-2,6.645999849E-3,1.559779942E-1
1.569957634E1,4.385999870E-3,2.019999956E-4,2.319830060E-1
1.571358230E1,-2.954900078E-2,2.930999966E-3,2.418880016E-1
1.572758893E1,-2.954900078E-2,2.930999966E-3,2.418880016E-1
1.574159636E1,-2.309999894E-3,6.651999895E-3,2.128449976E-1
1.575560313E1,2.535800077E-2,2.956400067E-2,2.248339951E-1
1.576960905E1,2.122600004E-2,5.083300173E-2,1.958390027E-1
1.578361580E1,2.122600004E-2,5.083300173E-2,1.958390027E-1
1.579762327E1,3.352999920E-3,6.368999835E-3,2.226880044E-1
1.581162999E1,-1.020599995E-2,2.646199986E-2,9.753199667E-2
1.582563595E1,-1.020599995E-2,2.646199986E-2,9.753199667E-2
1.583964266E1,9.209199995E-2,5.809099972E-2,1.164970025E-1
1.585365010E1,6.213400140E-2,1.686000032E-3,2.624250054E-1
1.586765678E1,6.213400140E-2,1.686000032E-3,2.624250054E-1
1.588166277E1,1.555099990E-2,-2.699699998E-2,3.441070020E-1
1.589566941E1,3.812599927E-2,-3.081900068E-2,4.898659885E-1
1.590967688E1,-1.250000019E-2,8.248000406E-3,2.385039926E-1
1.592368351E1,-1.250000019E-2,8.248000406E-3,2.385039926E-1
1.593768954E1,3.629099950E-2,5.882000085E-3,2.721500024E-2
1.595169626E1,6.395799667E-2,1.930700056E-2,1.820479929E-1
1.596570377E1,6.395799667E-2,1.930700056E-2,1.820479929E-1
1.597971051E1,-1.909600012E-2,6.188099831E-2,2.398550063E-1
1.599371645E1,3.073999891E-3,4.450400174E-2,2.056699991E-1
1.600772311E1,3.073999891E-3,4.450400174E-2,2.056699991E-1
1.602173063E1,2.391199954E-2,7.773499936E-2,8.650100231E-2
1.603573734E1,4.023300111E-2,7.807400078E-2,1.294160038E-1
1.604974337E1,3.251500055E-2,3.096299991E-2,1.933459938E-1
1.606375008E1,3.251500055E-2,3.096299991E-2,1.933459938E-1
1.607775758E1,1.574099995E-2,-3.738000058E-3,2.292679995E-1
1.609176429E1,3.119499981E-2,-5.712699890E-2,2.822059989E-1
1.610577033E1,3.119499981E-2,-5.712699890E-2,2.822059989E-1
1.611977707E1,1.143800002E-2,-8.755000308E-3,1.771440059E-1
1.613378458E1,4.045199975E-2,1.968199946E-2,2.130839974E-1
1.614779133E1,4.045199975E-2,1.968199946E-2,2.130839974E-1
1.616179722E1,5.382400006E-2,3.476899862E-2,1.140410006E-1
1.617580392E1,2.291899920E-2,2.572200075E-2,1.620270014E-1
1.618981131E1,-1.232200023E-2,3.889499977E-2,1.620219946E-1
1.620381805E1,-1.232200023E-2,3.889499977E-2,1.620219946E-1
1.621782399E1,1.767399907E-2,5.048500001E-2,1.810189933E-1
1.623183076E1,2.298899926E-2,6.671000272E-2,2.150219977E-1
1.624583821E1,2.298899926E-2,6.671000272E-2,2.150219977E-1
1.625984491E1,1.955099963E-2,5.993400142E-2,2.030249983E-1
1.627385082E1,2.015700005E-2,4.295799881E-2,1.650300026E-1
1.628785757E1,2.015700005E-2,4.295799881E-2,1.650300026E-1
1.630186502E1,2.431200072E-2,1.907899976E-2,1.650319993E-1
1.631587171E1,5.751699954E-2,4.459000006E-2,1.600320041E-1
1.632987768E1,1.364799961E-2,2.252599970E-2,1.860350072E-1
1.634388440E1,1.364799961E-2,2.252599970E-2,1.860350072E-1
1.635789185E1,1.297499985E-2,2.279699966E-2,1.930429935E-1
1.637189855E1,1.372800022E-2,-5.975000095E-3,1.860529929E-1
1.638590456E1,1.372800022E-2,-5.975000095E-3,1.860529929E-1
1.639991128E1,2.928199992E-2,-1.056000008E-3,1.550640017E-1
1.641391877E1,4.341100156E-2,-1.045399997E-2,1.360709965E-1
1.642792556E1,4.341100156E-2,-1.045399997E-2,1.360709965E-1
1.644193148E1,4.545599967E-2,3.143999958E-3,2.080740035E-1
1.645593820E1,2.717000060E-2,4.656400159E-2,2.270729989E-1
1.646994571E1,6.508999970E-3,4.918799922E-2,2.150740027E-1
1.648395232E1,6.508999970E-3,4.918799922E-2,2.150740027E-1
1.649795825E1,-2.266100049E-2,7.409600168E-2,4.009800032E-2
1.651196503E1,7.080099732E-2,9.753700346E-2,9.109999985E-3
1.652597247E1,7.080099732E-2,9.753700346E-2,9.109999985E-3
1.653997921E1,2.383499965E-2,3.009000048E-2,2.251120061E-1
1.655398516E1,-1.960000023E-3,-8.709999733E-3,1.891269982E-1
1.656799187E1,-1.960000023E-3,-8.709999733E-3,1.891269982E-1
1.658199933E1,3.370599821E-2,4.606000148E-3,2.631449997E-1
1.659600603E1,-6.450000219E-3,-5.828000139E-3,2.081529945E-1
1.661001204E1,2.001499943E-2,-7.965999655E-3,1.121490002E-1
1.662401874E1,2.001499943E-2,-7.965999655E-3,1.121490002E-1
1.663802621E1,3.794800118E-2,1.539999992E-2,1.891279966E-1
1.665203289E1,2.256299928E-2,2.947100066E-2,2.051180005E-1
1.666603888E1,2.256299928E-2,2.947100066E-2,2.051180005E-1
1.668004554E1,2.098000050E-2,4.617499933E-2,1.671119928E-1
1.669405306E1,4.501299933E-2,5.908799917E-2,1.430940032E-1
1.670805983E1,4.501299933E-2,5.908799917E-2,1.430940032E-1
1.672206574E1,4.141300172E-2,5.333599821E-2,2.170680016E-1
1.673607245E1,1.921699941E-2,4.887200147E-2,2.080529928E-1
1.675007993E1,1.724999957E-2,3.442800045E-2,1.770389974E-1
1.676408662E1,1.724999957E-2,3.442800045E-2,1.770389974E-1
1.677809255E1,5.021499842E-2,-1.249999972E-3,2.510280013E-1
1.679209932E1,1.188199967E-2,1.404500008E-2,2.080170065E-1
1.680610682E1,1.188199967E-2,1.404500008E-2,2.080170065E-1
1.682011350E1,-8.422999643E-3,1.260500029E-2,1.890120059E-1
1.683411942E1,1.831400022E-2,-1.392000006E-3,1.500090063E-1
1.684812620E1,1.831400022E-2,-1.392000006E-3,1.500090063E-1
1.686213370E1,9.858000092E-3,-6.546999793E-3,1.790030003E-1
1.687614041E1,2.150500007E-2,1.960000023E-2,2.199999988E-1
1.689014642E1,2.439999953E-2,3.186000045E-3,1.960009933E-1
1.690415315E1,2.439999953E-2,3.186000045E-3,1.960009933E-1
1.691816061E1,2.860300057E-2,2.998599969E-2,2.130099982E-1
1.693216742E1,6.728999782E-3,6.068500131E-2,1.740230024E-1
1.694617336E1,6.728999782E-3,6.068500131E-2,1.740230024E-1
1.696018009E1,2.190000005E-2,5.053199828E-2,1.790409982E-1
1.697418759E1,4.309400171E-2,2.834199928E-2,1.890610009E-1
1.698819436E1,4.309400171E-2,2.834199928E-2,1.890610009E-1
1.700220029E1,6.031899899E-2,1.483799983E-2,1.690800041E-1
1.701620696E1,3.235900030E-2,3.188300133E-2,1.811019927E-1
1.703021454E1,3.399400041E-2,-5.489999894E-3,2.581210136E-1
1.704422126E1,3.399400041E-2,-5.489999894E-3,2.581210136E-1
1.705822718E1,1.821899973E-2,2.796900086E-2,1.931339949E-1
1.707223393E1,2.032499947E-2,4.964000080E-3,1.981489956E-1
1.708624139E1,2.032499947E-2,4.964000080E-3,1.981489956E-1
1.710024808E1,-1.426700037E-2,-4.540900141E-2,2.251490057E-1
1.711425405E1,-2.561900020E-2,-2.632400021E-2,2.131399959E-1
1.712826073E1,-2.561900020E-2,-2.632400021E-2,2.131399959E-1
1.714226816E1,4.007399827E-2,3.700900078E-2,1.261470020E-1
1.715627484E1,4.813599959E-2,6.144300103E-2,1.741770059E-1
1.717028084E1,1.697300002E-2,2.060999908E-2,2.582109869E-1
1.718428751E1,1.697300002E-2,2.060999908E-2,2.582109869E-1
1.719829496E1,1.722200029E-2,-1.398000051E-3,2.342409939E-1
1.721230173E1,-5.710000172E-3,6.710600108E-2,7.624199986E-2
1.722630764E1,-5.710000172E-3,6.710600108E-2,7.624199986E-2
1.724031431E1,5.251999944E-2,1.115840003E-1,7.126899809E-2
1.725432185E1,7.217500359E-2,7.529799640E-2,2.963060141E-1
1.726832854E1,7.217500359E-2,7.529799640E-2,2.963060141E-1
1.728233446E1,2.494899929E-2,-4.362999927E-3,2.532790005E-1
1.729634122E1,6.196000148E-3,-4.512500018E-2,2.842609882E-1
1.731034868E1,-4.458900169E-2,2.081100084E-2,1.552480012E-1
1.732435536E1,-4.458900169E-2,2.081100084E-2,1.552480012E-1
1.733836132E1,7.210399956E-2,5.251900107E-2,1.362529993E-1
1.735236810E1,3.624400124E-2,5.064500123E-2,3.162690103E-1
1.736637557E1,3.624400124E-2,5.064500123E-2,3.162690103E-1
1.738038226E1,9.875999764E-3,2.252499945E-2,1.932609975E-1
1.739438825E1,1.691799983E-2,8.767999709E-3,1.962479949E-1
1.740839496E1,1.691799983E-2,8.767999709E-3,1.962479949E-1
1.742240242E1,5.173000041E-3,6.120000035E-3,1.462309957E-1
1.743640922E1,2.426400036E-2,6.774699688E-2,1.242379993E-1
1.745041514E1,4.985500127E-2,7.009299845E-2,1.792670041E-1
1.746442182E1,4.985500127E-2,7.009299845E-2,1.792670041E-1
1.747842928E1,-4.939800128E-2,-4.385999870E-3,1.003059968E-1
1.749243606E1,8.071199805E-2,-7.724700123E-2,2.153739929E-1
1.750644201E1,8.071199805E-2,-7.724700123E-2,2.153739929E-1
1.752044873E1,5.368899927E-2,4.411099851E-2,2.564339936E-1
1.753445626E1,-7.608999964E-3,4.784100130E-2,2.054630071E-1
1.754846296E1,-7.608999964E-3,4.784100130E-2,2.054630071E-1
1.756246889E1,5.583800003E-2,1.520800032E-2,2.104939967E-1
1.757647566E1,3.065400012E-2,1.189900003E-2,2.255139947E-1
1.759048312E1,1.128599979E-2,3.119600005E-2,1.895480007E-1
1.760448982E1,1.128599979E-2,3.119600005E-2,1.895480007E-1
1.761849584E1,1.037800033E-2,3.327300027E-2,1.606000066E-1
1.763250252E1,2.185299993E-2,4.614299908E-2,1.867029965E-1
1.764650999E1,2.185299993E-2,4.614299908E-2,1.867029965E-1
1.766051668E1,8.632999845E-3,2.583800070E-2,2.467959970E-1
1.767452268E1,2.863999922E-3,2.376000024E-2,2.278759927E-1
1.768852939E1,2.863999922E-3,2.376000024E-2,2.278759927E-1
1.770253686E1,4.771700129E-2,2.342000045E-2,1.899439991E-1
1.771654363E1,5.010600016E-2,3.674999997E-2,1.729899943E-1
1.773054952E1,3.002200089E-2,3.725500032E-2,1.630409956E-1
1.774455619E1,3.002200089E-2,3.725500032E-2,1.630409956E-1
1.775856363E1,3.072400019E-2,2.713499963E-2,1.920990050E-1
1.777257040E1,3.787799925E-2,2.574199997E-2,1.991460025E-1
1.778657632E1,3.787799925E-2,2.574199997E-2,1.991460025E-1
1.780058306E1,3.109700046E-2,1.220699959E-2,1.851889938E-1
1.781459056E1,4.370899871E-2,3.347500041E-2,2.092259973E-1
1.782859724E1,4.370899871E-2,3.347500041E-2,2.092259973E-1
1.784260317E1,3.051299974E-2,1.480100024E-2,1.662800014E-1
1.785660995E1,1.226700004E-2,2.346500009E-2,1.853410006E-1
1.787061741E1,7.050999906E-3,4.114200175E-2,2.213979959E-1
1.788462407E1,7.050999906E-3,4.114200175E-2,2.213979959E-1
1.789862999E1,3.265399858E-2,3.117899969E-2,2.284290045E-1
1.791263675E1,9.939000010E-3,6.463000085E-3,1.664309949E-1
1.792664422E1,9.939000010E-3,6.463000085E-3,1.664309949E-1
1.794065089E1,2.788699977E-2,2.084000036E-3,1.134679988E-1
1.795465693E1,4.624500126E-2,3.035500087E-2,1.495569944E-1
1.796866362E1,4.624500126E-2,3.035500087E-2,1.495569944E-1
1.798267108E1,5.251900107E-2,3.624099866E-2,2.047509998E-1
1.799667778E1,2.436899953E-2,-2.061500028E-2,2.118300050E-1
1.801068375E1,-1.203699969E-2,5.262099952E-2,8.489000052E-2
1.802469046E1,-1.203699969E-2,5.262099952E-2,8.489000052E-2
1.803869795E1,1.674000057E-3,1.015869975E-1,1.789889932E-1
1.805270469E1,4.050200060E-2,-4.841100052E-2,2.429350019E-1
1.806671059E1,4.050200060E-2,-4.841100052E-2,2.429350019E-1
1.808071729E1,7.740000146E-4,-1.252400037E-2,2.309290022E-1
1.809472478E1,-1.607299969E-2,1.056999993E-2,3.389309943E-1
1.810873155E1,-1.607299969E-2,1.056999993E-2,3.389309943E-1
1.812273747E1,1.898800023E-2,3.317400068E-2,1.478900015E-1
1.813674414E1,1.397500001E-2,3.571999958E-3,1.569260061E-1
1.815075169E1,4.219600186E-2,-4.809999838E-3,2.839539945E-1
1.816475837E1,4.219600186E-2,-4.809999838E-3,2.839539945E-1
1.817876430E1,-3.655999899E-3,2.441699989E-2,2.838979959E-1
1.819277110E1,4.986200109E-2,5.213699862E-2,1.878069937E-1
1.820677859E1,4.986200109E-2,5.213699862E-2,1.878069937E-1
1.822078528E1,3.131400049E-2,8.973299712E-2,1.737679988E-1
1.823479121E1,9.889999637E-4,4.476499930E-2,2.067340016E-1
1.824879798E1,9.889999637E-4,4.476499930E-2,2.067340016E-1
1.826280546E1,8.511999622E-3,2.960900031E-2,1.996790022E-1
1.827681218E1,7.298000157E-3,-1.866000006E-3,1.996379942E-1
1.829081817E1,3.834300116E-2,-3.711700067E-2,2.405759990E-1
1.830482484E1,3.834300116E-2,-3.711700067E-2,2.405759990E-1
1.831883230E1,6.079600006E-2,5.712999962E-3,1.825439930E-1
1.833283899E1,1.938799955E-2,2.410699986E-2,1.944749951E-1
1.834684502E1,1.938799955E-2,2.410699986E-2,1.944749951E-1
1.836085172E1,-1.395200007E-2,1.225099992E-2,1.803999990E-1
1.837485917E1,4.157099873E-2,-2.101900056E-2,1.993360072E-1
1.838886594E1,4.157099873E-2,-2.101900056E-2,1.993360072E-1
1.840287180E1,1.499299984E-2,4.834700003E-2,2.523210049E-1
1.841687848E1,1.372500043E-2,3.905100003E-2,2.282910049E-1
1.843088596E1,-6.742999889E-3,6.251999736E-2,2.022510022E-1
1.844489272E1,-6.742999889E-3,6.251999736E-2,2.022510022E-1
1.845889862E1,3.881699964E-2,6.871700287E-2,1.732069999E-1
1.847290532E1,3.575100005E-2,5.305999890E-2,1.681659967E-1
1.848691280E1,3.575100005E-2,5.305999890E-2,1.681659967E-1
1.850091956E1,2.881499939E-2,1.051400043E-2,1.681309938E-1
1.851492551E1,-1.546000014E-3,8.808000013E-3,1.780720055E-1
1.852893228E1,2.591199987E-2,2.973899990E-2,1.490219980E-1
1.854293975E1,2.591199987E-2,2.973899990E-2,1.490219980E-1
1.855694640E1,4.198100045E-2,-1.338999998E-2,1.229759976E-1
1.857095234E1,3.580600023E-2,-1.610299945E-2,1.229669973E-1
1.858495912E1,3.580600023E-2,-1.610299945E-2,1.229669973E-1
1.859896658E1,2.494600043E-2,3.121000016E-3,2.159889936E-1
1.861297327E1,1.775600016E-2,3.309300169E-2,2.779850066E-1
1.862697919E1,1.775600016E-2,3.309300169E-2,2.779850066E-1
1.864098600E1,7.265000138E-3,1.415599976E-2,3.359470069E-1
1.865499345E1,-5.360699818E-2,5.882799998E-2,2.448640019E-1
1.866900015E1,3.942900151E-2,3.716799989E-2,1.537889987E-1
1.868300614E1,3.942900151E-2,3.716799989E-2,1.537889987E-1
1.869701281E1,5.701399967E-2,6.194600090E-2,1.347579956E-1
1.871102027E1,9.119999595E-3,9.814999998E-2,1.797389984E-1
1.872502695E1,9.119999595E-3,9.814999998E-2,1.797389984E-1
1.873903293E1,3.249299899E-2,5.304500088E-2,2.037339956E-1
1.875303960E1,-9.467399865E-2,3.156400099E-2,2.256190032E-1
1.876704707E1,-9.467399865E-2,3.156400099E-2,2.256190032E-1
1.878105371E1,8.143000305E-3,2.632099949E-2,1.075379997E-1
1.879505970E1,9.657800198E-2,4.286399856E-2,1.934899986E-1
1.880906638E1,4.206699878E-2,-3.023700044E-2,2.324050069E-1
1.882307388E1,4.206699878E-2,-3.023700044E-2,2.324050069E-1
1.883708065E1,-1.027499977E-2,-9.556000121E-3,3.083179891E-1
1.885108654E1,2.239700034E-2,-3.121599928E-2,2.722420096E-1
1.886509321E1,2.239700034E-2,-3.121599928E-2,2.722420096E-1
1.887910067E1,3.603399917E-2,3.116899915E-2,1.981749982E-1
1.889310742E1,5.661800131E-2,2.555399947E-2,1.381150037E-1
1.890711333E1,5.661800131E-2,2.555399947E-2,1.381150037E-1
1.892112003E1,4.662299901E-2,4.840900004E-2,1.720840037E-1
1.893512751E1,5.353099853E-2,3.780600056E-2,1.650640070E-1
1.894913430E1,1.955199987E-2,5.837500095E-2,1.360519975E-1
1.896314026E1,1.955199987E-2,5.837500095E-2,1.360519975E-1
1.897714695E1,3.007300012E-2,1.033269987E-1,1.690469980E-1
1.899115453E1,7.718000095E-3,4.911800101E-2,1.910469979E-1
1.900516123E1,7.718000095E-3,4.911800101E-2,1.910469979E-1
1.901916719E1,-4.796999972E-3,-1.166800037E-2,2.170570046E-1
1.903317393E1,3.064000048E-3,-1.295099966E-2,1.600659937E-1
1.904718138E1,3.064000048E-3,-1.295099966E-2,1.600659937E-1
1.906118809E1,2.046599984E-2,1.451800019E-2,2.150620073E-1
1.907519402E1,1.011400018E-2,-1.536799967E-2,1.930689961E-1
1.908920082E1,3.560300171E-2,-2.163999947E-3,1.550759971E-1
1.910320832E1,3.560300171E-2,-2.163999947E-3,1.550759971E-1
1.911721500E1,2.337400056E-2,-1.012799982E-2,2.030799985E-1
1.913122091E1,2.569999918E-2,3.361999989E-2,2.150820047E-1
1.914522769E1,2.569999918E-2,3.361999989E-2,2.150820047E-1
1.915923514E1,2.265200019E-2,8.237200230E-2,1.720879972E-1
1.917324182E1,4.051199928E-2,5.994300172E-2,1.020829976E-1
1.918724773E1,4.051199928E-2,5.994300172E-2,1.020829976E-1
1.920125449E1,2.283999929E-3,5.883900076E-2,1.120759994E-1
1.921526196E1,-3.676000051E-3,5.618499964E-2,5.907699838E-2
1.922926863E1,2.704500034E-2,5.079799891E-2,8.806099743E-2
1.924327459E1,2.704500034E-2,5.079799891E-2,8.806099743E-2
1.925728129E1,4.309900105E-2,3.300000099E-4,2.200540006E-1
1.927128875E1,5.206799880E-2,-2.357899956E-2,2.530550063E-1
1.928529544E1,5.206799880E-2,-2.357899956E-2,2.530550063E-1
1.929930142E1,1.961199939E-2,2.226199955E-2,1.930570006E-1
1.931330807E1,2.692300081E-2,1.219400018E-2,1.930640042E-1
1.932731556E1,2.692300081E-2,1.219400018E-2,1.930640042E-1
1.934132226E1,1.651800051E-2,8.174999617E-3,2.030739933E-1
1.935532825E1,-1.385699958E-2,1.461999957E-2,2.580870092E-1
1.936933494E1,3.502799943E-2,-9.108000435E-3,2.200990021E-1
1.938334240E1,3.502799943E-2,-9.108000435E-3,2.200990021E-1
1.939734906E1,4.213900119E-2,3.979500011E-2,1.461160034E-1
1.941135509E1,1.352700032E-2,5.468599871E-2,1.361249983E-1
1.942536174E1,1.352700032E-2,5.468599871E-2,1.361249983E-1
1.943936921E1,3.877500072E-2,5.433100089E-2,1.671400070E-1
1.945337592E1,3.539700061E-2,5.940100178E-2,2.151879966E-1
1.946738196E1,3.539700061E-2,5.940100178E-2,2.151879966E-1
1.948138864E1,5.014999770E-3,3.039399907E-2,1.651919931E-1
1.949539609E1,3.028300032E-2,2.956599928E-2,4.320099950E-2
1.950940285E1,5.020200089E-2,5.154500157E-2,1.962269992E-1
1.952340879E1,5.020200089E-2,5.154500157E-2,1.962269992E-1
1.953741548E1,1.761999913E-2,-3.322900087E-2,2.842369974E-1
1.955142291E1,2.109700069E-2,-4.298099875E-2,3.282369971E-1
1.956542969E1,2.109700069E-2,-4.298099875E-2,3.282369971E-1
1.957943563E1,1.722200029E-2,-5.933099985E-2,3.182199895E-1
1.959344232E1,1.242799964E-2,-1.401900034E-2,9.520400316E-2
1.960744979E1,1.242799964E-2,-1.401900034E-2,9.520400316E-2
1.962145658E1,1.572999917E-2,6.144100055E-2,9.521400183E-2
1.963546254E1,2.961900085E-2,9.322500229E-2,1.672399938E-1
1.964946922E1,4.147399962E-2,6.570500135E-2,1.842660010E-1
1.966347668E1,4.147399962E-2,6.570500135E-2,1.842660010E-1
1.967748342E1,4.181500152E-2,6.882900000E-2,1.603039950E-1
1.969148935E1,8.279100060E-2,6.402099878E-2,1.553439945E-1
1.970549604E1,8.279100060E-2,6.402099878E-2,1.553439945E-1
1.971950353E1,2.990400046E-2,4.880499840E-2,2.893919945E-1
1.973351029E1,-6.082999986E-3,1.888700016E-2,2.134300023E-1
1.974751623E1,-6.082999986E-3,1.888700016E-2,2.134300023E-1
1.976152291E1,6.721000187E-3,-2.705699950E-2,1.264690012E-1
1.977553037E1,3.639199957E-2,-1.966699958E-2,1.965139955E-1
1.978953712E1,-1.554100029E-2,-9.961999953E-3,1.625739932E-1
1.980354304E1,-1.554100029E-2,-9.961999953E-3,1.625739932E-1
1.981754972E1,3.716100007E-2,2.326700091E-2,2.036440074E-1
1.983155716E1,1.724799909E-2,1.527300011E-2,2.636910081E-1
1.984556395E1,1.724799909E-2,1.527300011E-2,2.636910081E-1
1.985956991E1,-6.829999853E-3,4.586999863E-2,2.637239993E-1
1.987357662E1,2.467699908E-2,1.753799990E-2,2.467579991E-1
1.988758415E1,2.467699908E-2,1.753799990E-2,2.467579991E-1
1.990159085E1,2.421800047E-2,5.185199901E-2,2.377600074E-1
1.991559679E1,6.498999894E-3,8.845800161E-2,1.777410060E-1
1.992960347E1,1.556599978E-2,7.190000266E-2,7.974600047E-2
1.994361097E1,1.556599978E-2,7.190000266E-2,7.974600047E-2
1.995761765E1,5.898300186E-2,-1.554400008E-2,1.178189963E-1
1.997162357E1,6.402199715E-2,-3.481400013E-2,1.608850062E-1
1.998563037E1,6.402199715E-2,-3.481400013E-2,1.608850062E-1
1.999963784E1,4.782100022E-2,9.065999649E-3,2.159689963E-1
2.001364454E1,3.740800172E-2,3.041099943E-2,2.040629983E-1
2.002765048E1,3.740800172E-2,3.041099943E-2,2.040629983E-1
2.004165716E1,2.371400036E-2,-1.713800058E-2,1.751749963E-1
2.005566470E1,2.668399923E-2,-2.604600042E-2,1.662719995E-1
2.006967135E1,2.066200040E-2,2.349999966E-3,1.733790040E-1
2.008367729E1,2.066200040E-2,2.349999966E-3,1.733790040E-1
2.009768407E1,2.422500029E-2,5.690000253E-4,2.335219979E-1
2.011169154E1,-5.791999865E-3,1.325900014E-2,2.456230074E-1
2.012569822E1,-5.791999865E-3,1.325900014E-2,2.456230074E-1
2.013970417E1,1.465499960E-2,5.074999854E-2,2.217279971E-1
2.015371097E1,4.292099923E-2,5.235800147E-2,2.148150057E-1
2.016771845E1,4.292099923E-2,5.235800147E-2,2.148150057E-1
2.018172520E1,1.204499975E-2,7.096599787E-2,1.429460049E-1
2.019573104E1,5.211799964E-2,4.718500003E-2,1.690589935E-1
2.020973783E1,4.354599863E-2,2.318299934E-2,1.982080042E-1
2.022374527E1,4.354599863E-2,2.318299934E-2,1.982080042E-1
2.023775195E1,-2.561400086E-2,-8.093000390E-3,2.362489998E-1
2.025175784E1,1.430600043E-2,2.321999986E-3,1.192819998E-1
2.026576459E1,1.430600043E-2,2.321999986E-3,1.192819998E-1
2.027977206E1,5.105800182E-2,6.434199959E-2,1.623409986E-1
2.029377874E1,4.097399861E-2,1.822699979E-2,2.313140035E-1
2.030778469E1,4.097399861E-2,1.822699979E-2,2.313140035E-1
2.032179145E1,-5.129000172E-3,-4.070999846E-2,2.793149948E-1
2.033579890E1,2.804799937E-2,-2.580700070E-2,2.982800007E-1
2.034980557E1,1.993000042E-3,8.302999660E-3,1.312319934E-1
2.036381150E1,1.993000042E-3,8.302999660E-3,1.312319934E-1
2.037781826E1,2.148899995E-2,1.590899937E-2,1.692889929E-1
2.039182572E1,4.724200070E-2,6.358800083E-2,2.413440049E-1
2.040583247E1,4.724200070E-2,6.358800083E-2,2.413440049E-1
2.041983838E1,6.271199882E-2,6.156599894E-2,1.933420002E-1
2.043384509E1,5.867600068E-2,5.604600161E-2,1.403310001E-1
2.044785264E1,5.867600068E-2,5.604600161E-2,1.403310001E-1
2.046185938E1,2.741000056E-2,2.588799968E-2,1.453990042E-1
2.047586532E1,3.542999970E-3,3.351899981E-2,2.104890049E-1
2.048987199E1,1.815499924E-2,-1.803899929E-2,2.295680046E-1
2.050387954E1,1.815499924E-2,-1.803899929E-2,2.295680046E-1
2.051788619E1,2.651599981E-2,-3.106899932E-2,2.126740068E-1
2.053189212E1,-2.042900026E-2,-1.919499971E-2,2.677310109E-1
2.054589881E1,-2.042900026E-2,-1.919499971E-2,2.677310109E-1
2.055990637E1,1.751600020E-2,-1.886999980E-2,1.767850071E-1
2.057391305E1,2.684099972E-2,1.671499945E-2,1.678420007E-1
2.058791896E1,2.684099972E-2,1.671499945E-2,1.678420007E-1
2.060192563E1,2.576800063E-2,2.115700021E-2,2.298869938E-1
2.061593305E1,2.026900090E-2,1.727100089E-2,2.419199944E-1
2.062993983E1,2.318700030E-2,2.816100046E-2,2.179830074E-1
2.064394574E1,2.318700030E-2,2.816100046E-2,2.179830074E-1
2.065795244E1,3.716199845E-2,5.474599823E-2,2.280679941E-1
2.067195989E1,9.661000222E-3,4.069999978E-2,2.130769938E-1
2.068596664E1,9.661000222E-3,4.069999978E-2,2.130769938E-1
2.069997256E1,-2.408999950E-3,5.898100138E-2,1.580590010E-1
2.071397925E1,2.895200066E-2,4.836300015E-2,1.890220046E-1
2.072798673E1,2.895200066E-2,4.836300015E-2,1.890220046E-1
2.074199349E1,1.966900006E-2,9.073000401E-3,2.109300047E-1
2.075599944E1,4.052500054E-2,-4.085699841E-2,2.278179973E-1
2.077000613E1,5.631100014E-2,8.675999939E-3,2.057259977E-1
2.078401359E1,5.631100014E-2,8.675999939E-3,2.057259977E-1
2.079802035E1,1.728600077E-2,3.265300021E-2,2.106010020E-1
2.081202627E1,1.916700043E-2,3.851999994E-3,1.954829991E-1
2.082603299E1,1.916700043E-2,3.851999994E-3,1.954829991E-1
2.084004046E1,2.582699992E-2,-1.796099916E-2,1.673620045E-1
2.085404715E1,-1.773799956E-2,1.564799994E-2,1.522569954E-1
2.086805314E1,-1.773799956E-2,1.564799994E-2,1.522569954E-1
2.088205983E1,3.072299995E-2,3.249999881E-2,1.811400056E-1
2.089606730E1,3.795300052E-2,3.780899942E-2,1.930570006E-1
2.091007399E1,5.875600129E-2,4.666699842E-2,2.239859998E-1
2.092407999E1,5.875600129E-2,4.666699842E-2,2.239859998E-1
2.093808669E1,4.181399941E-2,5.284700170E-2,2.029010057E-1
2.095209414E1,3.930800036E-2,2.637000009E-2,2.338539958E-1
2.096610086E1,3.930800036E-2,2.637000009E-2,2.338539958E-1
2.098010681E1,5.580699816E-2,5.102999974E-3,2.408089936E-1
2.099411351E1,4.046799988E-2,-3.306000028E-3,2.167720050E-1
2.100812099E1,4.046799988E-2,-3.306000028E-3,2.167720050E-1
2.102212770E1,-8.351000026E-3,4.388000071E-2,1.545729935E-1
2.103613371E1,1.690799929E-2,8.175499737E-2,5.645199865E-2
2.105014040E1,1.884000003E-2,3.589500114E-2,2.383539975E-1
2.106414786E1,1.884000003E-2,3.589500114E-2,2.383539975E-1
2.107815454E1,1.891200058E-2,-3.249200061E-2,2.281779945E-1
2.109216056E1,-1.694799960E-2,-2.974300086E-2,2.900440097E-1
2.110616726E1,-1.694799960E-2,-2.974300086E-2,2.900440097E-1
2.112017472E1,1.788800023E-2,3.439999884E-3,2.109010071E-1
2.113418141E1,3.151699901E-2,7.060799748E-2,1.177939996E-1
2.114818740E1,3.151699901E-2,7.060799748E-2,1.177939996E-1
2.116219410E1,2.539999969E-2,6.569100171E-2,1.817049980E-1
2.117620152E1,2.616100013E-2,4.443600029E-2,1.866160035E-1
2.119020822E1,4.828000069E-2,4.139999859E-3,1.745229959E-1
2.120421423E1,4.828000069E-2,4.139999859E-3,1.745229959E-1
2.121822092E1,6.751699746E-2,2.986700088E-2,1.654590070E-1
2.123222839E1,4.968500137E-2,5.803700164E-2,1.964319944E-1
2.124623509E1,4.968500137E-2,5.803700164E-2,1.964319944E-1
2.126024102E1,1.544400025E-2,5.040299892E-2,1.964080036E-1
2.127424779E1,1.244000043E-3,2.117899992E-2,1.623779982E-1
2.128825527E1,1.244000043E-3,2.117899992E-2,1.623779982E-1
2.130226196E1,-2.199899964E-2,-4.052599892E-2,1.863220036E-1
2.131626790E1,2.600900084E-2,1.024200022E-2,2.252880037E-1
2.133027467E1,4.541099817E-2,-1.715400070E-2,2.652490139E-1
2.134428212E1,4.541099817E-2,-1.715400070E-2,2.652490139E-1
2.135828882E1,3.255899996E-2,2.113000024E-3,2.412060052E-1
2.137229473E1,2.210400067E-2,3.041400015E-2,2.201620042E-1
2.138630144E1,2.210400067E-2,3.041400015E-2,2.201620042E-1
2.140030899E1,3.421400115E-2,6.343299896E-2,1.651380062E-1
2.141431567E1,1.150299981E-2,5.579800159E-2,1.581300050E-1
2.142832159E1,1.150299981E-2,5.579800159E-2,1.581300050E-1
2.144232827E1,1.027700026E-2,7.322400063E-2,1.621299982E-1
2.145633570E1,2.194000036E-2,5.632099882E-2,9.815499932E-2
2.147034246E1,1.460000058E-4,4.445299879E-2,1.241760030E-1
2.148434839E1,1.460000058E-4,4.445299879E-2,1.241760030E-1
2.149835510E1,3.120199963E-2,5.664600059E-2,2.391850054E-1
2.151236255E1,2.793999948E-2,1.312700007E-2,2.391899973E-1
2.152636932E1,2.793999948E-2,1.312700007E-2,2.391899973E-1
2.154037523E1,1.897599921E-2,3.994000144E-3,1.791969985E-1
2.155438195E1,3.001900017E-2,2.454400063E-2,1.342079937E-1
2.156838941E1,3.001900017E-2,2.454400063E-2,1.342079937E-1
2.158239612E1,2.500200085E-2,3.522400185E-2,8.621100336E-2
2.159640212E1,4.768899828E-2,2.684899978E-2,8.821599931E-2
2.161040882E1,2.397399954E-2,1.754499972E-2,1.432279944E-1
2.162441629E1,2.397399954E-2,1.754499972E-2,1.432279944E-1
2.163842298E1,4.230799899E-2,3.632799909E-2,1.982470006E-1
2.165242896E1,-6.845999975E-3,2.752700076E-2,2.252729982E-1
2.166643567E1,-6.845999975E-3,2.752700076E-2,2.252729982E-1
2.168044312E1,4.605900124E-2,4.047900066E-2,1.863009930E-1
2.169444978E1,1.197000034E-2,8.349899948E-2,2.013529986E-1
2.170845578E1,1.197000034E-2,8.349899948E-2,2.013529986E-1
2.172246251E1,-6.746000145E-3,2.030400001E-2,2.053740025E-1
2.173646996E1,1.289100014E-2,4.871099815E-2,7.638499886E-2
2.175047666E1,6.340699643E-2,4.750499874E-2,2.273949981E-1
2.176448257E1,6.340699643E-2,4.750499874E-2,2.273949981E-1
2.177848931E1,1.707600057E-2,-1.631800085E-2,2.514050007E-1
2.179249677E1,-4.530999810E-3,-1.459000050E-3,2.823829949E-1
2.180650346E1,-4.530999810E-3,-1.459000050E-3,2.823829949E-1
2.182050936E1,8.018000051E-3,8.384999819E-3,2.373639941E-1
2.183451604E1,3.216600046E-2,1.242399961E-2,1.023610011E-1
2.184852358E1,3.216600046E-2,1.242399961E-2,1.023610011E-1
2.186253027E1,2.159399912E-2,2.230999991E-2,1.533859968E-1
2.187653617E1,4.925699905E-2,5.378599837E-2,2.274120003E-1
2.189054286E1,3.065400012E-2,2.241599932E-2,2.374240011E-1
2.190455032E1,3.065400012E-2,2.241599932E-2,2.374240011E-1
2.191855707E1,6.744299829E-2,1.145500038E-2,2.014320046E-1
2.193256297E1,3.816900030E-2,5.212699994E-2,1.484519988E-1
2.194656966E1,3.816900030E-2,5.212699994E-2,1.484519988E-1
2.196057712E1,2.367999963E-2,7.976800203E-2,1.695100069E-1
2.197458392E1,8.043999784E-3,6.517399848E-2,1.265729964E-1
2.198858986E1,8.043999784E-3,6.517399848E-2,1.265729964E-1
2.200259656E1,-5.348000210E-3,1.227299962E-2,1.676679999E-1
2.201660401E1,3.258699924E-2,-3.658099845E-2,2.637349963E-1
2.203061069E1,2.052799985E-2,-1.847399957E-2,2.108090073E-1
2.204461671E1,2.052799985E-2,-1.847399957E-2,2.108090073E-1
2.205862342E1,2.827100083E-2,9.731999598E-3,1.918630004E-1
2.207263084E1,2.523799986E-2,2.048099972E-2,1.679099947E-1
2.208663755E1,2.523799986E-2,2.048099972E-2,1.679099947E-1
2.210064357E1,1.799900085E-2,1.830199920E-2,1.679749936E-1
2.211465028E1,1.881700009E-2,2.714299969E-2,1.850759983E-1
2.212865775E1,1.881700009E-2,2.714299969E-2,1.850759983E-1
2.214266445E1,5.923000164E-3,4.169800133E-2,2.162259966E-1
2.215667036E1,2.384999953E-2,3.356999904E-2,2.213400006E-1
2.217067715E1,8.158000186E-3,4.924200103E-2,1.924380064E-1
2.218468458E1,8.158000186E-3,4.924200103E-2,1.924380064E-1
2.219869126E1,2.549099922E-2,3.046599962E-2,1.995349973E-1
2.221269717E1,3.988000005E-2,6.703999825E-3,1.876289994E-1
2.222670387E1,3.988000005E-2,6.703999825E-3,1.876289994E-1
2.224071145E1,3.010199964E-2,1.994900033E-2,1.806890070E-1
2.225471817E1,5.694000050E-3,-6.819999777E-3,1.907690018E-1
2.226872409E1,5.694000050E-3,-6.819999777E-3,1.907690018E-1
2.228273082E1,1.524200011E-2,-2.251699939E-2,2.598310113E-1
2.229673829E1,2.422500029E-2,-1.658499986E-2,1.928649992E-1
2.231074507E1,3.194800019E-2,9.640000062E-4,1.789119989E-1
2.232475097E1,3.194800019E-2,9.640000062E-4,1.789119989E-1
2.233875767E1,3.520600125E-2,1.690400019E-2,1.709479988E-1
2.235276514E1,1.328099985E-2,1.574400067E-2,1.710239947E-1
2.236677180E1,1.328099985E-2,1.574400067E-2,1.710239947E-1
2.238077778E1,1.269599982E-2,3.839999903E-3,2.001100034E-1
2.239478449E1,3.614899889E-2,5.795300007E-2,2.192000002E-1
2.240879193E1,3.614899889E-2,5.795300007E-2,2.192000002E-1
2.242279864E1,3.153299913E-2,3.021400049E-2,2.433349937E-1
2.243680463E1,4.935999867E-3,3.199999919E-3,1.983100027E-1
2.245081131E1,1.815300062E-2,2.635099925E-2,4.729599878E-2
2.246481875E1,1.815300062E-2,2.635099925E-2,4.729599878E-2
2.247882544E1,4.062699899E-2,5.764999986E-2,1.483599991E-1
2.249283136E1,2.327400073E-2,-1.407399960E-2,1.743099988E-1
2.250683815E1,2.327400073E-2,-1.407399960E-2,1.743099988E-1
2.252084563E1,-2.049499936E-2,4.342000000E-3,3.153089881E-1
2.253485236E1,1.562099997E-2,-1.745600067E-2,2.962549925E-1
2.254885829E1,1.562099997E-2,-1.745600067E-2,2.962549925E-1
2.256286499E1,2.056000056E-3,-6.926000118E-3,1.142190024E-1
2.257687243E1,1.718799956E-2,4.289999977E-2,1.482609957E-1
2.259087924E1,4.491399974E-2,8.067200333E-2,2.172989994E-1
2.260488518E1,4.491399974E-2,8.067200333E-2,2.172989994E-1
2.261889188E1,1.458199974E-2,5.532899871E-2,2.073120028E-1
2.263289932E1,3.423500061E-2,5.088999867E-2,1.623280048E-1
2.264690604E1,3.423500061E-2,5.088999867E-2,1.623280048E-1
2.266091199E1,2.569999918E-2,4.261000082E-2,1.743730009E-1
2.267491868E1,2.179099992E-2,4.311599955E-2,1.794379950E-1
2.268892617E1,1.549699996E-2,4.782500118E-2,2.275030017E-1
2.270293285E1,1.549699996E-2,4.782500118E-2,2.275030017E-1
2.271693885E1,-1.354399975E-2,-2.468900010E-2,2.125889957E-1
2.273094550E1,2.888300084E-2,5.579999997E-4,2.466299981E-1
2.274495293E1,2.888300084E-2,5.579999997E-4,2.466299981E-1
2.275895962E1,2.590899915E-2,3.648000071E-3,1.607100070E-1
2.277296553E1,3.168300167E-2,6.368000060E-3,1.767770052E-1
2.278697229E1,3.168300167E-2,6.368000060E-3,1.767770052E-1
2.280097977E1,2.023000084E-2,-9.258000180E-3,1.818120033E-1
2.281498646E1,1.857900061E-2,4.756499827E-2,1.988700032E-1
2.282899234E1,1.567999949E-3,6.343000103E-3,2.160090059E-1
2.284299904E1,1.567999949E-3,6.343000103E-3,2.160090059E-1
2.285700652E1,4.741799831E-2,4.041999951E-2,1.682099998E-1
2.287101331E1,1.963000000E-2,5.428000167E-2,1.634220034E-1
2.288501922E1,1.963000000E-2,5.428000167E-2,1.634220034E-1
2.289902588E1,8.689999580E-3,3.551999852E-2,2.325779945E-1
2.291303334E1,4.005799815E-2,2.308999933E-2,2.547140121E-1
2.292704002E1,4.005799815E-2,2.308999933E-2,2.547140121E-1
2.294104604E1,3.588100150E-2,-4.077999853E-3,2.187560052E-1
2.295505275E1,2.744100057E-2,3.337400034E-2,1.637849957E-1
2.296906022E1,3.915200010E-2,2.219600044E-2,1.618590057E-1
2.298306690E1,3.915200010E-2,2.219600044E-2,1.618590057E-1
2.299707290E1,1.783999964E-3,5.989000201E-3,1.949270070E-1
2.301107959E1,1.144700032E-2,-1.556599978E-2,2.049929947E-1
2.302508703E1,1.144700032E-2,-1.556599978E-2,2.049929947E-1
2.303909379E1,5.712000187E-3,-2.066799998E-2,2.430399954E-1
2.305309973E1,-2.128999913E-3,-7.479999913E-4,2.450609952E-1
2.306710639E1,-2.128999913E-3,-7.479999913E-4,2.450609952E-1
2.308111393E1,1.934400015E-2,1.919299923E-2,2.240719944E-1
2.309512063E1,5.584999919E-3,2.648800053E-2,2.190700024E-1
2.310912659E1,8.024999872E-3,5.952399969E-2,1.950280070E-1
2.312313329E1,8.024999872E-3,5.952399969E-2,1.950280070E-1
2.313714076E1,3.062799945E-2,4.120400175E-2,2.069730014E-1
2.315114741E1,2.498699911E-2,9.010000154E-3,2.189359963E-1
2.316515344E1,2.498699911E-2,9.010000154E-3,2.189359963E-1
2.317916012E1,2.254899964E-2,2.041600086E-2,2.019169927E-1
2.319316759E1,2.682100050E-2,2.148599923E-2,2.209330052E-1
2.320717428E1,2.682100050E-2,2.148599923E-2,2.209330052E-1
2.322118025E1,-1.970300078E-2,2.384099923E-2,2.187879980E-1
2.323518694E1,-9.720000089E-4,5.932699889E-2,1.206459999E-1
2.324919441E1,2.623800002E-2,2.688900009E-2,2.045599967E-1
2.326320112E1,2.623800002E-2,2.688900009E-2,2.045599967E-1
2.327720704E1,3.729600087E-2,-3.399999987E-4,2.513180077E-1
2.329121381E1,7.890000124E-4,-4.860000045E-4,3.161480129E-1
2.330522128E1,7.890000124E-4,-4.860000045E-4,3.161480129E-1
2.331922795E1,5.251900107E-2,1.334800012E-2,2.589370012E-1
2.333323386E1,-6.566999946E-3,2.175500058E-2,8.573800325E-2
2.334724055E1,-6.566999946E-3,2.175500058E-2,8.573800325E-2
2.336124803E1,4.851200059E-2,4.848600179E-2,1.626320034E-1
2.337525479E1,4.212800041E-2,2.095999941E-2,2.275169939E-1
2.338926074E1,3.828499839E-2,-2.578000072E-3,1.193670034E-1
2.340326743E1,3.828499839E-2,-2.578000072E-3,1.193670034E-1
2.341727490E1,6.163299829E-2,4.950200021E-2,1.283250004E-1
2.343128157E1,2.501099929E-2,7.796300203E-2,2.313269973E-1
2.344528756E1,2.501099929E-2,7.796300203E-2,2.313269973E-1
2.345929426E1,1.323899999E-2,6.677299738E-2,2.413010001E-1
2.347330172E1,1.293599978E-2,-3.302599862E-2,1.402699947E-1
2.348730837E1,1.293599978E-2,-3.302599862E-2,1.402699947E-1
2.350131429E1,2.473999979E-3,-2.527800016E-2,1.552740037E-1
2.351532107E1,1.075700019E-2,5.187000148E-3,2.552750111E-1
2.352932856E1,-7.087999955E-3,2.628800087E-2,2.772409916E-1
2.354333528E1,-7.087999955E-3,2.628800087E-2,2.772409916E-1
2.355734121E1,8.171999827E-3,2.003600076E-2,2.670930028E-1
2.357134790E1,4.750800133E-2,4.600000102E-5,1.569669992E-1
2.358535538E1,4.750800133E-2,4.600000102E-5,1.569669992E-1
2.359936213E1,6.235500053E-2,3.988000005E-2,1.599159986E-1
2.361336806E1,6.109000184E-3,6.832999736E-2,2.718789876E-1
2.362737476E1,6.109000184E-3,6.832999736E-2,2.718789876E-1
2.364138224E1,1.557900012E-2,6.986399740E-2,2.118310034E-1
2.365538896E1,2.255599946E-2,4.995200038E-2,1.827889979E-1
2.366939496E1,-3.450000077E-4,2.624600008E-2,1.497759968E-1
2.368340160E1,-3.450000077E-4,2.624600008E-2,1.497759968E-1
2.369740909E1,-1.910899952E-2,5.237900093E-2,2.477979958E-1
2.371141577E1,1.892399974E-2,4.072999954E-2,2.047979981E-1
2.372542169E1,1.892399974E-2,4.072999954E-2,2.047979981E-1
2.373942837E1,2.427699976E-2,1.027099974E-2,1.667169929E-1
2.375343580E1,4.213599861E-2,-7.619000040E-3,1.375769973E-1
2.376744249E1,4.213599861E-2,-7.619000040E-3,1.375769973E-1
2.378144840E1,1.802499965E-2,-6.689999718E-4,1.114910021E-1
2.379545507E1,1.797199994E-2,-1.787300035E-2,1.854359955E-1
2.380946253E1,9.789999574E-3,1.078800019E-2,2.383600026E-1
2.382346922E1,9.789999574E-3,1.078800019E-2,2.383600026E-1
2.383747524E1,3.732800111E-2,3.300200030E-2,2.262489945E-1
2.385148193E1,2.183699980E-2,2.596599981E-2,1.821710020E-1
2.386548939E1,2.183699980E-2,2.596599981E-2,1.821710020E-1
2.387949607E1,4.457899928E-2,2.831799909E-2,1.111290008E-1
2.389350208E1,2.816000022E-2,4.295599833E-2,2.181060016E-1
2.390750878E1,2.816000022E-2,4.295599833E-2,2.181060016E-1
2.392151629E1,2.794500068E-2,5.950099975E-2,2.380989939E-1
2.393552299E1,-8.520000265E-4,5.960899964E-2,2.230740041E-1
2.394952895E1,2.197200060E-2,2.864800021E-2,1.079650000E-1
2.396353563E1,2.197200060E-2,2.864800021E-2,1.079650000E-1
2.397754319E1,-2.627999987E-3,7.786899805E-2,1.488300040E-2
2.399154992E1,1.509100050E-1,-2.885599993E-2,2.638339996E-1
2.400555583E1,1.509100050E-1,-2.885599993E-2,2.638339996E-1
2.401956251E1,-9.421000257E-3,-3.006600030E-2,2.417760044E-1
2.403356999E1,-6.872999948E-3,-2.598300017E-2,3.427030146E-1
2.404757666E1,-6.872999948E-3,-2.598300017E-2,3.427030146E-1
2.406158268E1,1.795299910E-2,-2.416300029E-2,3.046300113E-1
2.407558937E1,1.827399991E-2,4.094000161E-2,1.365869939E-1
2.408959680E1,5.277200043E-2,6.900700182E-2,8.355999738E-2
2.410360347E1,5.277200043E-2,6.900700182E-2,8.355999738E-2
2.411760937E1,4.172400013E-2,4.172600061E-2,2.485439926E-1
2.413161615E1,3.866000101E-3,2.369399928E-2,2.465460002E-1
2.414562361E1,3.866000101E-3,2.369399928E-2,2.465460002E-1
2.415963030E1,1.200699992E-2,9.189300239E-2,1.775570065E-1
2.417363624E1,1.043509990E-1,4.060700163E-2,9.856499732E-2
2.418764292E1,1.043509990E-1,4.060700163E-2,9.856499732E-2
2.420165038E1,1.526100002E-2,7.048899680E-2,3.358900174E-2
2.421565708E1,-1.453700010E-2,4.556399956E-2,1.365900040E-1
2.422966310E1,-1.596700028E-2,-3.490399942E-2,2.345740050E-1
2.424366975E1,-1.596700028E-2,-3.490399942E-2,2.345740050E-1
2.425767722E1,1.355999988E-2,1.918900013E-2,1.675930023E-1
2.427168392E1,2.989600040E-2,3.397500142E-2,9.060499817E-2
2.428568986E1,2.989600040E-2,3.397500142E-2,9.060499817E-2
2.429969667E1,2.165500075E-2,3.581200168E-2,9.560900182E-2
2.431370413E1,5.487000104E-3,-1.630399935E-2,1.296029985E-1
2.432771082E1,5.487000104E-3,-1.630399935E-2,1.296029985E-1
2.434171673E1,3.353299946E-2,2.211900055E-2,1.416209936E-1
2.435572345E1,1.098699961E-2,3.589399904E-2,2.256789953E-1
2.436973090E1,1.735999947E-3,6.735099852E-2,2.607420087E-1
2.438373766E1,1.735999947E-3,6.735099852E-2,2.607420087E-1
2.439774358E1,2.478099987E-2,7.948499918E-2,1.818179935E-1
2.441175024E1,2.299599908E-2,6.848800182E-2,1.898819953E-1
2.442575771E1,2.299599908E-2,6.848800182E-2,1.898819953E-1
2.443976440E1,5.423200130E-2,2.249000035E-2,1.919600070E-1
2.445377042E1,5.063299835E-2,-7.025999948E-3,2.160400003E-1
2.446777711E1,5.063299835E-2,-7.025999948E-3,2.160400003E-1
2.448178458E1,2.659999952E-2,1.999500021E-2,2.061129957E-1
2.449579123E1,8.109999821E-3,3.683099896E-2,1.271809936E-1
2.450979716E1,-1.154300012E-2,5.524900183E-2,1.872150004E-1
2.452380385E1,-1.154300012E-2,5.524900183E-2,1.872150004E-1
2.453781132E1,2.598600090E-2,2.248499915E-2,2.352519929E-1
2.455181809E1,-1.466999995E-3,1.237999997E-3,1.872989982E-1
2.456582404E1,-1.466999995E-3,1.237999997E-3,1.872989982E-1
2.457983069E1,1.650100015E-2,1.841000048E-3,2.113550007E-1
2.459383818E1,2.488300018E-2,1.290399954E-2,2.354190052E-1
2.460784486E1,2.488300018E-2,1.290399954E-2,2.354190052E-1
2.462185086E1,-1.938199997E-2,6.763999816E-3,1.804710031E-1
2.463585754E1,1.281800028E-2,6.765300035E-2,1.254879981E-1
2.464986499E1,4.962800071E-2,8.023300022E-2,9.448400140E-2
2.466387168E1,4.962800071E-2,8.023300022E-2,9.448400140E-2
2.467787759E1,3.764199838E-2,6.309299916E-2,2.594470084E-1
2.469188434E1,6.546000019E-3,-6.270000013E-4,2.523910105E-1
2.470589180E1,6.546000019E-3,-6.270000013E-4,2.523910105E-1
2.471989849E1,-9.352999739E-3,-3.396600112E-2,3.123019934E-1
2.473390443E1,1.356500015E-2,-4.317000043E-3,2.422090024E-1
2.474791109E1,1.356500015E-2,-4.317000043E-3,2.422090024E-1
2.476191856E1,5.398499966E-2,-4.408999812E-3,1.011530012E-1
2.477592524E1,2.095399983E-2,3.105700016E-2,1.561460048E-1
2.478993126E1,2.131499909E-2,6.911099702E-2,2.451359928E-1
2.480393797E1,2.131499909E-2,6.911099702E-2,2.451359928E-1
2.481794542E1,6.601999979E-3,2.844800055E-2,2.211149931E-1
2.483195211E1,1.037800033E-2,2.678499930E-2,1.490940005E-1
2.484595805E1,1.037800033E-2,2.678499930E-2,1.490940005E-1
2.485996485E1,1.197099965E-2,3.473399952E-2,1.870950013E-1
2.487397224E1,1.776999980E-2,3.969100118E-2,1.631119996E-1
2.488797901E1,1.776999980E-2,3.969100118E-2,1.631119996E-1
2.490198494E1,1.597000053E-3,4.178500175E-2,1.511400044E-1
2.491599163E1,1.325900014E-2,5.150000099E-3,1.821559966E-1
2.492999909E1,9.159999900E-3,5.193000194E-3,2.331770062E-1
2.494400576E1,9.159999900E-3,5.193000194E-3,2.331770062E-1
2.495801180E1,8.117999882E-3,-1.357000042E-2,1.902000010E-1
2.497201848E1,2.744599991E-2,2.742500044E-2,2.091989964E-1
2.498602593E1,2.744599991E-2,2.742500044E-2,2.091989964E-1
2.500003261E1,2.496599965E-2,2.800899930E-2,1.972000003E-1
2.501403855E1,9.491999634E-3,1.998399943E-2,2.262060046E-1
2.502804525E1,9.491999634E-3,1.998399943E-2,2.262060046E-1
2.504205271E1,2.125000022E-2,1.406299975E-2,1.632660031E-1
2.505605946E1,7.631000131E-3,4.912799969E-2,1.683250070E-1
2.507006539E1,2.858000109E-3,6.039199978E-2,1.663919985E-1
2.508407207E1,2.858000109E-3,6.039199978E-2,1.663919985E-1
2.509807953E1,2.871000022E-2,5.650499836E-2,1.944720000E-1
2.511208624E1,1.917799935E-2,4.130899906E-2,2.065359950E-1
2.512609224E1,1.236699987E-2,-7.662000135E-3,2.165720016E-1
2.514009894E1,1.236699987E-2,-7.662000135E-3,2.165720016E-1
2.515410641E1,3.020099923E-2,3.347900137E-2,2.406090051E-1
2.516811307E1,3.020099923E-2,3.347900137E-2,2.406090051E-1
2.518211902E1,4.223100096E-2,1.234299969E-2,1.996250004E-1
2.519612569E1,2.495500073E-2,6.397000048E-3,1.786449999E-1
2.521013313E1,6.051999982E-3,2.767400071E-2,1.906500012E-1
2.522413993E1,6.051999982E-3,2.767400071E-2,1.906500012E-1
2.523814583E1,-7.437000051E-3,-3.073000116E-3,1.756560057E-1
2.525215252E1,-3.217000049E-3,8.592999540E-3,2.166880071E-1
2.526615998E1,-3.217000049E-3,8.592999540E-3,2.166880071E-1
2.528016667E1,-7.044999860E-3,3.450699896E-2,2.097219974E-1
2.529417269E1,4.797299951E-2,4.281400144E-2,2.237830013E-1
2.530817940E1,4.797299951E-2,4.281400144E-2,2.237830013E-1
2.532218683E1,1.195299998E-2,1.047299989E-2,1.788160056E-1
2.533619353E1,3.406799957E-2,5.516200140E-2,1.547929943E-1
2.535019944E1,1.355199981E-2,6.934700161E-2,6.875299662E-2
2.536420611E1,1.355199981E-2,6.934700161E-2,6.875299662E-2
2.537821359E1,3.690800071E-2,2.122999914E-2,2.187509984E-1
2.539222027E1,2.836200036E-2,-1.707799919E-2,2.716889977E-1
2.540622630E1,2.836200036E-2,-1.707799919E-2,2.716889977E-1
2.542023299E1,-2.335200086E-2,-1.457799971E-2,3.336060047E-1
2.543424045E1,-3.452999983E-3,-2.769500017E-2,2.064979970E-1
2.544824715E1,-3.452999983E-3,-2.769500017E-2,2.064979970E-1
2.546225305E1,1.348499954E-2,3.279399872E-2,1.394390017E-1
2.547625974E1,3.995899856E-2,4.344199970E-2,2.044180036E-1
2.549026729E1,1.935200021E-2,4.444700107E-2,1.943890005E-1
2.550427397E1,1.935200021E-2,4.444700107E-2,1.943890005E-1
2.551827988E1,2.230199985E-2,6.119199842E-2,1.443540007E-1
2.553228656E1,4.458099976E-2,4.994700104E-2,1.993319988E-1
2.554629403E1,4.458099976E-2,4.994700104E-2,1.993319988E-1
2.556030072E1,2.649899945E-2,7.957799733E-2,2.143400013E-1
2.557430675E1,1.623000018E-3,5.714900047E-2,2.213349938E-1
2.558831341E1,1.623000018E-3,5.714900047E-2,2.213349938E-1
2.560232088E1,-3.032400087E-2,5.276500061E-2,2.302989960E-1
2.561632757E1,-1.306200027E-2,5.023299903E-2,2.542339861E-1
2.563033349E1,4.981699958E-2,2.425700054E-2,1.781660020E-1
2.564434016E1,4.981699958E-2,2.425700054E-2,1.781660020E-1
2.565834762E1,1.159400027E-2,-1.991700009E-2,1.031240001E-1
2.567235439E1,4.763999954E-2,-4.855800048E-2,1.700900048E-1
2.568636033E1,4.763999954E-2,-4.855800048E-2,1.700900048E-1
2.570036701E1,-2.277900092E-2,-1.102840006E-1,5.800290108E-1
2.571437447E1,-1.885000058E-2,1.419740021E-1,1.469590068E-1
2.572838116E1,-1.885000058E-2,1.419740021E-1,1.469590068E-1
2.574238711E1,6.801500171E-2,6.245499849E-2,7.990100235E-2
2.575639386E1,2.859099954E-2,-2.237699926E-2,1.199000031E-1
2.577040134E1,3.423200175E-2,2.796900086E-2,1.699170023E-1
2.578440803E1,3.423200175E-2,2.796900086E-2,1.699170023E-1
2.579841397E1,1.871999912E-2,8.118800074E-2,2.109210044E-1
2.581242065E1,-1.974999905E-3,5.381900072E-2,2.568860054E-1
2.582642814E1,-1.974999905E-3,5.381900072E-2,2.568860054E-1
2.584043481E1,2.435199916E-2,1.019999982E-4,2.447939962E-1
2.585444083E1,3.412099928E-2,-1.818400063E-2,1.777359992E-1
2.586844752E1,3.412099928E-2,-1.818400063E-2,1.777359992E-1
2.588245498E1,1.538399979E-2,3.097799979E-2,1.146930009E-1
2.589646169E1,2.742400020E-2,3.996400163E-2,1.436759979E-1
2.591046763E1,3.291499987E-2,2.074700035E-2,2.226479948E-1
2.592447434E1,3.291499987E-2,2.074700035E-2,2.226479948E-1
2.593848185E1,-3.355999943E-3,-1.945400052E-2,2.296250015E-1
2.595248854E1,-1.079740003E-1,8.660600334E-2,1.436839998E-1
2.596649445E1,-1.079740003E-1,8.660600334E-2,1.436839998E-1
2.598050116E1,8.224699646E-2,-5.514999852E-3,8.173599839E-2
2.599450862E1,1.534530073E-1,-5.508999806E-3,3.357689977E-1
2.600851531E1,1.534530073E-1,-5.508999806E-3,3.357689977E-1
2.602252125E1,-1.051499974E-2,3.445500135E-2,1.817809939E-1
2.603652796E1,1.794500090E-2,3.394199908E-2,1.698119938E-1
2.605053544E1,5.779799819E-2,1.805300079E-2,1.678510010E-1
2.606454212E1,5.779799819E-2,1.805300079E-2,1.678510010E-1
2.607854805E1,6.258200109E-2,3.283200040E-2,2.539150119E-1
2.609255472E1,-3.250800073E-2,-1.588599943E-2,2.088389993E-1
2.610656219E1,-3.250800073E-2,-1.588599943E-2,2.088389993E-1
2.612056884E1,-3.313999996E-2,2.787400037E-2,2.379699983E-2
2.613457484E1,4.114700109E-2,8.901300281E-2,1.418099999E-1
2.614858156E1,4.114700109E-2,8.901300281E-2,1.418099999E-1
2.616258901E1,1.096799970E-2,-1.284400001E-2,2.997870147E-1
2.617659569E1,-4.042999819E-3,-3.238299862E-2,3.617300093E-1
2.619060164E1,-4.614000209E-3,-1.154499967E-2,3.396329880E-1
2.620460834E1,-4.614000209E-3,-1.154499967E-2,3.396329880E-1
2.621861581E1,2.261099964E-2,2.905399911E-2,1.265529990E-1
2.623262256E1,9.234099835E-2,2.486399934E-2,1.245300025E-1
2.624662852E1,9.234099835E-2,2.486399934E-2,1.245300025E-1
2.626063520E1,5.428899825E-2,3.959000111E-2,2.015189976E-1
2.627464270E1,1.595900021E-2,4.648699984E-2,1.894900054E-1
2.628864940E1,1.595900021E-2,4.648699984E-2,1.894900054E-1
2.630265534E1,3.215999901E-2,7.245600224E-2,1.534609944E-1
2.631666206E1,1.142499968E-2,5.699399859E-2,1.844550073E-1
2.633066954E1,-7.056999952E-3,2.912200056E-2,1.964560002E-1
2.634467624E1,-7.056999952E-3,2.912200056E-2,1.964560002E-1
2.635868212E1,3.032400087E-2,-1.150299981E-2,2.204599977E-1
2.637268886E1,-8.919999818E-4,-3.073599935E-2,2.484579980E-1
2.638669634E1,-8.919999818E-4,-3.073599935E-2,2.484579980E-1
2.640070298E1,-9.069000371E-3,-2.773199975E-2,2.824169993E-1
2.641470898E1,-4.166999832E-3,2.354300022E-2,1.674029976E-1
2.642871567E1,6.934099644E-2,-2.006999915E-3,1.343750060E-1
2.644272315E1,6.934099644E-2,-2.006999915E-3,1.343750060E-1
2.645672982E1,6.264399737E-2,-9.058999829E-3,1.363569945E-1
2.647073576E1,-8.661000058E-3,1.565499976E-2,2.583349943E-1
2.648474241E1,-8.661000058E-3,1.565499976E-2,2.583349943E-1
2.649874987E1,-7.060000207E-3,6.636500359E-2,2.583230138E-1
2.651275653E1,5.460799858E-2,3.758399934E-2,1.743170023E-1
2.652676255E1,5.460799858E-2,3.758399934E-2,1.743170023E-1
2.654076923E1,6.068300083E-2,4.271800071E-2,1.813260019E-1
2.655477673E1,-9.600999765E-3,5.791100115E-2,1.963270009E-1
2.656878342E1,-9.600999765E-3,5.791100115E-2,1.963270009E-1
2.658278935E1,-4.774999805E-3,3.747500107E-2,2.373140007E-1
2.659679606E1,2.086699940E-2,-8.423999883E-3,2.013009936E-1
2.661080354E1,6.987600029E-2,-3.064000048E-3,2.152830064E-1
2.662481032E1,6.987600029E-2,-3.064000048E-3,2.152830064E-1
2.663881622E1,4.737799987E-2,1.333000022E-3,2.052640021E-1
2.665282291E1,2.581099980E-2,4.980000202E-3,1.772429943E-1
2.666683036E1,2.581099980E-2,4.980000202E-3,1.772429943E-1
2.668083700E1,4.263899848E-2,2.501000091E-2,1.672320068E-1
2.669484295E1,3.282000124E-2,2.322899923E-2,1.812250018E-1
2.670884972E1,3.282000124E-2,2.322899923E-2,1.812250018E-1
2.672285720E1,1.163700037E-2,8.612999693E-3,2.292169929E-1
2.673686388E1,1.397399977E-2,2.462200075E-2,2.102040052E-1
2.675086979E1,1.973499916E-2,5.220400169E-2,1.891880035E-1
2.676487647E1,1.973499916E-2,5.220400169E-2,1.891880035E-1
2.677888392E1,4.452700168E-2,5.492699891E-2,9.517899901E-2
2.679289060E1,2.214900032E-2,5.919099972E-2,2.131749988E-1
2.680689657E1,2.214900032E-2,5.919099972E-2,2.131749988E-1
2.682090324E1,4.858100042E-2,4.102699831E-2,2.221740037E-1
2.683491067E1,5.178299919E-2,1.847999915E-2,2.581860125E-1
2.684891739E1,-1.546999998E-2,-3.284800053E-2,2.011590004E-1
2.686292331E1,-1.546999998E-2,-3.284800053E-2,2.011590004E-1
2.687692999E1,-1.565000042E-3,9.189999662E-3,1.112500019E-2
2.689093750E1,7.054799795E-2,4.668200016E-2,1.741009951E-1
2.690494419E1,7.054799795E-2,4.668200016E-2,1.741009951E-1
2.691895020E1,2.278300002E-2,-3.047600016E-2,2.721030116E-1
2.693295689E1,1.767699979E-2,-4.296199977E-2,3.280700147E-1
2.694696435E1,1.767699979E-2,-4.296199977E-2,3.280700147E-1
2.696097105E1,-6.039999891E-3,1.848999970E-2,2.870489955E-1
2.697497698E1,4.268600047E-2,4.386800155E-2,1.530520022E-1
2.698898367E1,8.333700150E-2,1.695599966E-2,1.220569983E-1
2.700299113E1,8.333700150E-2,1.695599966E-2,1.220569983E-1
2.701699791E1,4.463899881E-2,5.724300072E-2,2.030699998E-1
2.703100382E1,3.369700164E-2,7.198099792E-2,1.720940024E-1
2.704501055E1,3.369700164E-2,7.198099792E-2,1.720940024E-1
2.705901804E1,2.554200031E-2,7.061800361E-2,1.221100017E-1
2.707302470E1,3.055199981E-2,5.736399814E-2,1.841139942E-1
2.708703062E1,3.055199981E-2,5.736399814E-2,1.841139942E-1
2.710103742E1,2.056000056E-3,3.872799873E-2,2.081200033E-1
2.711504490E1,4.823000170E-3,-1.125099976E-2,2.171310037E-1
2.712905158E1,1.483299956E-2,-1.729900017E-2,1.891459972E-1
2.714305750E1,1.483299956E-2,-1.729900017E-2,1.891459972E-1
2.715706416E1,8.763999678E-3,-1.250899956E-2,2.441470027E-1
2.717107165E1,-7.130000158E-4,2.004599944E-2,2.031580061E-1
2.718507833E1,-7.130000158E-4,2.004599944E-2,2.031580061E-1
2.719908427E1,1.223899983E-2,1.381300017E-2,1.481920034E-1
2.721309106E1,2.527200058E-2,1.670899987E-2,1.602060050E-1
2.722709852E1,2.527200058E-2,1.670899987E-2,1.602060050E-1
2.724110519E1,2.064500004E-2,3.109299950E-2,1.692080051E-1
2.725511110E1,3.344999999E-2,6.970199943E-2,1.982019991E-1
2.726911779E1,4.644599929E-2,6.769599766E-2,1.791840047E-1
2.728312528E1,4.644599929E-2,6.769599766E-2,1.791840047E-1
2.729713197E1,4.950600117E-2,7.388000190E-2,1.961580068E-1
2.731113798E1,1.525500044E-2,6.325200200E-2,8.114500344E-2
2.732514468E1,1.525500044E-2,6.325200200E-2,8.114500344E-2
2.733915213E1,2.525399998E-2,3.423900157E-2,7.411599904E-2
2.735315886E1,3.885700181E-2,-2.422999963E-2,1.840839982E-1
2.736716482E1,3.885700181E-2,-2.422999963E-2,1.840839982E-1
2.738117149E1,2.085299976E-2,-2.828799933E-2,2.340680063E-1
2.739517895E1,1.126400009E-2,8.213999681E-3,1.960600019E-1
2.740918566E1,1.589299925E-2,1.397500001E-2,1.790540069E-1
2.742319166E1,1.589299925E-2,1.397500001E-2,1.790540069E-1
2.743719835E1,2.525199950E-2,5.272999872E-3,1.720490009E-1
2.745120582E1,2.445499972E-2,-2.434999915E-3,1.930480003E-1
2.746521249E1,2.445499972E-2,-2.434999915E-3,1.930480003E-1
2.747921841E1,3.024099953E-2,7.313999813E-3,2.050510049E-1
2.749322512E1,3.003099933E-2,3.129800037E-2,1.860540062E-1
2.750723260E1,3.003099933E-2,3.129800037E-2,1.860540062E-1
2.752123932E1,3.938699886E-2,5.112100020E-2,1.790519953E-1
2.753524525E1,4.134700075E-2,7.691500336E-2,1.600569934E-1
2.754925193E1,3.669599816E-2,6.606899947E-2,1.770810038E-1
2.756325939E1,3.669599816E-2,6.606899947E-2,1.770810038E-1
2.757726607E1,5.187999923E-3,3.773000091E-2,1.891070008E-1
2.759127197E1,3.195500001E-2,3.044500016E-2,4.710699990E-2
2.760527868E1,3.195500001E-2,3.044500016E-2,4.710699990E-2
2.761928618E1,4.338100180E-2,4.236600175E-2,2.371219993E-1
2.763329286E1,-4.054000136E-3,-4.423199967E-2,2.251629978E-1
2.764729877E1,-4.054000136E-3,-4.423199967E-2,2.251629978E-1
2.766130549E1,-1.006800029E-2,-6.777899712E-2,3.541580141E-1
2.767531296E1,-3.502500057E-2,2.860999899E-3,2.681500018E-1
2.768931967E1,3.530399874E-2,1.267500035E-2,9.516199678E-2
2.770332564E1,3.530399874E-2,1.267500035E-2,9.516199678E-2
2.771733229E1,4.495099932E-2,1.691900007E-2,1.621930003E-1
2.773133978E1,3.015399911E-2,6.016099826E-2,1.962269992E-1
2.774534645E1,3.015399911E-2,6.016099826E-2,1.962269992E-1
2.775935236E1,6.972999871E-2,5.554300174E-2,1.652590036E-1
2.777335908E1,7.544600219E-2,4.594900087E-2,1.582919955E-1
2.778736652E1,7.544600219E-2,4.594900087E-2,1.582919955E-1
2.780137323E1,9.836999699E-3,5.464699864E-2,1.583320051E-1
2.781537924E1,2.300000051E-3,6.172699854E-2,2.013860047E-1
2.782938591E1,2.263499983E-2,5.187999923E-3,2.374400049E-1
2.784339340E1,2.263499983E-2,5.187999923E-3,2.374400049E-1
2.785740010E1,-1.569999964E-3,-5.539499968E-2,1.774969995E-1
2.787140600E1,1.526799984E-2,-3.865600005E-2,2.035430074E-1
2.788541268E1,1.526799984E-2,-3.865600005E-2,2.035430074E-1
2.789942012E1,3.892600164E-2,-1.919700019E-2,1.386239976E-1
2.791342680E1,5.750999972E-2,-3.859000048E-3,2.017479986E-1
2.792743282E1,5.750999972E-2,-3.859000048E-3,2.017479986E-1
2.794143951E1,3.261899948E-2,-4.433999769E-3,2.468219995E-1
2.795544698E1,-6.430000067E-4,2.520699985E-2,2.398909926E-1
2.796945364E1,2.180000069E-3,5.421900004E-2,1.559980065E-1
2.798345955E1,2.180000069E-3,5.421900004E-2,1.559980065E-1
2.799746623E1,3.311099857E-2,5.633300170E-2,1.442040056E-1
2.801147371E1,4.521499947E-2,5.970900133E-2,2.404019982E-1
2.802548043E1,4.521499947E-2,5.970900133E-2,2.404019982E-1
2.803948642E1,2.210300043E-2,3.386399895E-2,2.355789989E-1
2.805349314E1,-5.191000178E-3,3.170699999E-2,1.997590065E-1
2.806750058E1,-5.191000178E-3,3.170699999E-2,1.997590065E-1
2.808150728E1,4.281099886E-2,-6.550999824E-3,2.048889995E-1
2.809551321E1,3.855299950E-2,8.249999955E-4,1.879960001E-1
2.810951989E1,2.425700054E-2,1.420900039E-2,2.031279951E-1
2.812352738E1,2.425700054E-2,1.420900039E-2,2.031279951E-1
2.813753408E1,1.843499951E-2,-1.018800028E-2,2.432679981E-1
2.815154006E1,3.013500012E-2,-1.338899974E-2,2.273489982E-1
2.816554676E1,3.013500012E-2,-1.338899974E-2,2.273489982E-1
2.817955426E1,2.979500033E-2,-7.989999838E-3,1.984249949E-1
2.819356094E1,2.942400053E-2,-1.000399981E-2,1.794919968E-1
2.820756687E1,2.942400053E-2,-1.000399981E-2,1.794919968E-1
2.822157358E1,2.050299942E-2,1.885100082E-2,1.436019987E-1
2.823558100E1,1.909199916E-2,2.499599941E-2,2.007459998E-1
