"Time (s)","Linear Acceleration x (m/s^2)","Linear Acceleration y (m/s^2)","Linear Acceleration z (m/s^2)"
1.112831750E-1,-6.699999794E-4,1.904999954E-3,5.795000121E-2
1.252900020E-1,-6.699999794E-4,1.904999954E-3,5.795000121E-2
1.392961170E-1,1.077000052E-3,-2.908000024E-3,-7.321900129E-2
1.533029820E-1,-3.819999984E-4,1.140999957E-3,2.803100087E-2
1.673105880E-1,-2.092000097E-3,6.707000080E-3,1.953330040E-1
1.813173140E-1,-2.092000097E-3,6.707000080E-3,1.953330040E-1
1.953234050E-1,-3.387999954E-3,1.056599990E-2,3.703939915E-1
2.093302650E-1,-1.028000028E-3,8.507000282E-3,2.583850026E-1
2.233378230E-1,-1.028000028E-3,8.507000282E-3,2.583850026E-1
2.373446070E-1,-2.194999950E-3,6.866000127E-3,2.154799998E-1
2.513506550E-1,-2.884000074E-3,4.348999821E-3,2.295320034E-1
2.653574770E-1,-2.884000074E-3,4.348999821E-3,2.295320034E-1
2.793650780E-1,-7.118000183E-3,6.014999934E-3,3.387070000E-1
2.933718270E-1,-6.552000064E-3,8.377999999E-3,3.300830126E-1
3.073780100E-1,-7.300000289E-4,1.853000023E-3,5.214799941E-2
3.213847800E-1,-7.300000289E-4,1.853000023E-3,5.214799941E-2
3.353923950E-1,-3.199999992E-5,9.820000269E-4,2.873300016E-2
3.493991880E-1,-6.162700057E-2,2.027600072E-2,2.279700041E-1
3.634052160E-1,-6.162700057E-2,2.027600072E-2,2.279700041E-1
3.774120480E-1,-1.996479928E-1,1.072459966E-1,3.123559952E-1
3.914196640E-1,-2.300949991E-1,9.533599764E-2,2.119739950E-1
4.054265430E-1,-2.300949991E-1,9.533599764E-2,2.119739950E-1
4.194325870E-1,-9.417100251E-2,1.123839989E-1,1.484410018E-1
4.334394660E-1,-1.847100072E-2,8.298200369E-2,1.318690032E-1
4.474470480E-1,-3.125600144E-2,-3.173999954E-3,1.322579980E-1
4.614539520E-1,-3.125600144E-2,-3.173999954E-3,1.322579980E-1
4.754600630E-1,-1.365869939E-1,2.492100000E-2,2.666609883E-1
4.894668900E-1,-1.724659950E-1,1.653870046E-1,3.028090000E-1
5.034744900E-1,-1.724659950E-1,1.653870046E-1,3.028090000E-1
5.174813260E-1,-8.122400194E-2,1.153279990E-1,3.218109906E-1
5.314874080E-1,-1.779799908E-2,-2.141899988E-2,2.359099984E-1
5.454942410E-1,-1.779799908E-2,-2.141899988E-2,2.359099984E-1
5.595018890E-1,-3.926600143E-2,-8.385100216E-2,2.020870000E-1
5.735087650E-1,2.992700040E-2,-2.287399955E-2,1.672589928E-1
5.875148280E-1,7.982099801E-2,8.437799662E-2,7.337799668E-2
6.015216980E-1,7.982099801E-2,8.437799662E-2,7.337799668E-2
6.155293190E-1,5.381400138E-2,1.294520050E-1,8.841799945E-2
6.295361260E-1,-1.423600037E-2,9.798400104E-2,1.433970034E-1
6.435421940E-1,-1.423600037E-2,9.798400104E-2,1.433970034E-1
6.575490400E-1,-6.705900282E-2,9.147100151E-2,1.572880000E-1
6.715566460E-1,-3.180800006E-2,7.406000048E-2,2.070029974E-1
6.855634580E-1,-3.180800006E-2,7.406000048E-2,2.070029974E-1
6.995694960E-1,-5.966399983E-2,1.420599967E-2,2.337879986E-1
7.135763620E-1,-1.679839939E-1,-4.850300029E-2,2.667399943E-1
7.275838800E-1,-2.756519914E-1,-1.343700010E-2,1.999430060E-1
7.415907370E-1,-2.756519914E-1,-1.343700010E-2,1.999430060E-1
7.555968670E-1,-2.598780096E-1,1.430509984E-1,6.113100052E-2
7.696036790E-1,-9.012299776E-2,1.094840020E-1,3.489800170E-2
7.836112790E-1,-9.012299776E-2,1.094840020E-1,3.489800170E-2
7.976181290E-1,1.127099991E-2,1.890200004E-2,2.185119987E-1
8.116241780E-1,-3.575899825E-2,-1.046880037E-1,3.950859904E-1
8.256310140E-1,-3.575899825E-2,-1.046880037E-1,3.950859904E-1
8.396386390E-1,-7.033599913E-2,4.085999914E-3,2.711339891E-1
8.536454950E-1,3.776200116E-2,1.558700055E-1,1.755020022E-1
8.676515670E-1,7.367999852E-2,1.687490046E-1,1.227250025E-1
8.816584040E-1,7.367999852E-2,1.687490046E-1,1.227250025E-1
8.956660150E-1,-2.452399954E-2,-3.222100064E-2,1.858779937E-1
9.096728470E-1,-1.878709942E-1,-2.139599994E-2,3.372659981E-1
9.236789470E-1,-1.878709942E-1,-2.139599994E-2,3.372659981E-1
9.376858170E-1,-2.274210006E-1,1.472029984E-1,3.809170127E-1
9.516934520E-1,-1.632899940E-1,2.155269980E-1,1.431600004E-2
9.657002550E-1,-1.632899940E-1,2.155269980E-1,1.431600004E-2
9.797063370E-1,-7.490599900E-2,8.273600042E-2,1.031809971E-1
9.937132030E-1,-6.372799724E-2,-2.936699986E-2,3.089349866E-1
1.007720794E0,-1.594099998E-1,-6.025300175E-2,3.258059919E-1
1.021727626E0,-1.594099998E-1,-6.025300175E-2,3.258059919E-1
1.035733688E0,-2.744120061E-1,-2.699599974E-2,2.227579951E-1
1.049740529E0,-2.770020068E-1,-8.551800251E-2,8.858799934E-2
1.063748136E0,-2.770020068E-1,-8.551800251E-2,8.858799934E-2
1.077755006E0,-1.938759983E-1,-1.211170033E-1,4.248999991E-3
1.091761116E0,1.050500013E-2,3.240200132E-2,7.041899860E-2
1.105767924E0,1.050500013E-2,3.240200132E-2,7.041899860E-2
1.119775530E0,1.060110033E-1,1.462209970E-1,2.108179927E-1
1.133782357E0,1.310819983E-1,1.627490073E-1,2.513009906E-1
1.147788410E0,2.227199972E-1,1.487250030E-1,1.359599978E-1
1.161795174E0,2.227199972E-1,1.487250030E-1,1.359599978E-1
1.175802785E0,2.088800073E-1,4.402799904E-2,4.176500067E-2
1.189809632E0,1.282349974E-1,-2.755199932E-2,8.063799888E-2
1.203815640E0,1.282349974E-1,-2.755199932E-2,8.063799888E-2
1.217822491E0,1.310400013E-2,-2.316799946E-2,1.543720067E-1
1.231830116E0,-1.273570061E-1,-1.920000068E-4,1.559460014E-1
1.245836938E0,-1.273570061E-1,-1.920000068E-4,1.559460014E-1
1.259843029E0,-7.787699997E-2,1.001389995E-1,2.064200044E-1
1.273849904E0,-6.323499978E-2,1.372430027E-1,2.100750059E-1
1.287857510E0,-1.024620011E-1,7.460600138E-2,2.458229959E-1
1.301864318E0,-1.024620011E-1,7.460600138E-2,2.458229959E-1
1.315870399E0,-9.321600199E-2,-4.376899824E-2,2.455880046E-1
1.329877255E0,-5.775199831E-2,-7.643800229E-2,1.884469986E-1
1.343884881E0,-5.775199831E-2,-7.643800229E-2,1.884469986E-1
1.357891712E0,-9.684500098E-2,-7.337000221E-3,1.303479970E-1
1.371897842E0,-1.223030016E-1,7.235900313E-2,1.331949979E-1
1.385904770E0,-1.223030016E-1,7.235900313E-2,1.331949979E-1
1.399912327E0,-7.626000047E-2,1.122339964E-1,1.278509945E-1
1.413919203E0,-7.013099641E-2,5.470100045E-2,1.926209927E-1
1.427925351E0,-5.877799913E-2,1.498600002E-2,2.353219986E-1
1.441932179E0,-5.877799913E-2,1.498600002E-2,2.353219986E-1
1.455939808E0,-2.935599908E-2,2.982299961E-2,2.442599982E-1
1.469946659E0,2.801300026E-2,9.130000323E-2,1.133780032E-1
1.483952711E0,2.801300026E-2,9.130000323E-2,1.133780032E-1
1.497959495E0,2.315399982E-2,8.500199765E-2,1.614280045E-1
1.511967120E0,-4.383800179E-2,6.362999789E-3,2.633489966E-1
1.525973995E0,-4.383800179E-2,6.362999789E-3,2.633489966E-1
1.539980111E0,2.667799965E-2,-4.217299819E-2,2.374320030E-1
1.553986957E0,-4.383999854E-3,2.231100015E-2,2.855969965E-1
1.567994587E0,-6.191299856E-2,4.811599851E-2,1.616140008E-1
1.582001447E0,-6.191299856E-2,4.811599851E-2,1.616140008E-1
1.596007515E0,2.618899941E-2,2.548299916E-2,9.656400234E-2
1.610014385E0,5.392099917E-2,2.619099990E-2,1.945150048E-1
1.624022058E0,5.392099917E-2,2.619099990E-2,1.945150048E-1
1.638028933E0,-2.865399979E-2,3.414300084E-2,2.924700081E-1
1.652035020E0,-4.285300151E-2,6.125099957E-2,2.015089989E-1
1.666041828E0,-4.285300151E-2,6.125099957E-2,2.015089989E-1
1.680049453E0,-1.671599969E-2,8.352699876E-2,8.951199800E-2
1.694056318E0,-4.210999981E-2,9.199800342E-2,1.254149973E-1
1.708062376E0,-6.067800149E-2,7.021199912E-2,1.872979999E-1
1.722069265E0,-6.067800149E-2,7.021199912E-2,1.872979999E-1
1.736076867E0,-5.912299827E-2,1.132399961E-2,3.074379861E-1
1.750083722E0,-6.686200202E-2,-1.255900040E-2,2.954980135E-1
1.764089785E0,-6.686200202E-2,-1.255900040E-2,2.954980135E-1
1.778096611E0,-2.452800050E-2,4.365799949E-2,2.064619958E-1
1.792104218E0,2.053700015E-2,4.462900013E-2,8.948399872E-2
1.806111069E0,2.053700015E-2,4.462900013E-2,8.948399872E-2
1.820117227E0,3.119000001E-3,2.310400084E-2,8.258999884E-2
1.834123958E0,-5.227899924E-2,2.567999996E-2,1.925700009E-1
1.848131573E0,3.375000088E-3,2.032900043E-2,2.614800036E-1
1.862138414E0,3.375000088E-3,2.032900043E-2,2.614800036E-1
1.876144578E0,4.594700038E-2,5.076799914E-2,2.233980000E-1
1.890151449E0,8.767000400E-3,7.289800048E-2,1.563600004E-1
1.904159096E0,8.767000400E-3,7.289800048E-2,1.563600004E-1
1.918165966E0,-4.067900032E-2,8.595299721E-2,1.413390040E-1
1.932172010E0,-5.169999786E-4,6.110399961E-2,1.292539984E-1
1.946178860E0,-5.169999786E-4,6.110399961E-2,1.292539984E-1
1.960186429E0,3.600300103E-2,2.606399916E-2,1.751690060E-1
1.974193266E0,-1.140999980E-2,1.825900003E-2,2.131559998E-1
1.988199352E0,-4.063700140E-2,1.667100005E-2,2.181449980E-1
2.002206232E0,-4.063700140E-2,1.667100005E-2,2.181449980E-1
2.016213837E0,1.852400042E-2,5.073200166E-2,1.290410012E-1
2.030220684E0,2.421499975E-2,5.051099882E-2,1.530259997E-1
2.044226713E0,2.421499975E-2,5.051099882E-2,1.530259997E-1
2.058233529E0,-3.545999993E-3,3.708999977E-2,1.939450055E-1
2.072241202E0,-5.253199860E-2,6.694000214E-3,2.348749936E-1
2.086248053E0,-5.253199860E-2,6.694000214E-3,2.348749936E-1
2.100254077E0,-2.165400051E-2,6.278499961E-2,1.290969998E-1
2.114260895E0,3.950000100E-4,1.058439985E-1,1.032460034E-1
2.128268495E0,-2.179599926E-2,2.789999917E-2,1.991920024E-1
2.142275365E0,-2.179599926E-2,2.789999917E-2,1.991920024E-1
2.156281481E0,2.565399930E-2,-2.489399910E-2,2.853629887E-1
2.170288337E0,8.199999866E-5,4.228999838E-2,4.175849855E-1
2.184295952E0,8.199999866E-5,4.228999838E-2,4.175849855E-1
2.198302813E0,-3.053699993E-2,7.082200050E-2,1.925500035E-1
2.212308875E0,5.736500025E-2,5.836199969E-2,-8.430000395E-3
2.226315731E0,5.736500025E-2,5.836199969E-2,-8.430000395E-3
2.240323346E0,1.155729964E-1,3.488200158E-2,8.264300227E-2
2.254330207E0,-1.045900024E-2,3.584099934E-2,1.776019931E-1
2.268336299E0,-1.985600032E-2,6.084800139E-2,2.206010073E-1
2.282343140E0,-1.985600032E-2,6.084800139E-2,2.206010073E-1
2.296350716E0,1.873799972E-2,9.198100120E-2,1.876270026E-1
2.310357562E0,1.958999969E-2,6.609100103E-2,1.655990034E-1
2.324363673E0,1.958999969E-2,6.609100103E-2,1.655990034E-1
2.338370606E0,-1.638399996E-2,2.521399967E-2,1.725399941E-1
2.352378183E0,1.230799966E-2,5.644999910E-3,2.045850009E-1
2.366384967E0,1.230799966E-2,5.644999910E-3,2.045850009E-1
2.380391125E0,-7.880000048E-4,-3.190000134E-4,2.136420012E-1
2.394397938E0,1.236199960E-2,3.795500100E-2,1.685529947E-1
2.408405462E0,2.246499993E-2,3.964700177E-2,1.535079926E-1
2.422412404E0,2.246499993E-2,3.964700177E-2,1.535079926E-1
2.436418520E0,-1.789899915E-2,3.236300126E-2,1.896110028E-1
2.450425371E0,-2.549099922E-2,4.589200020E-2,1.946769953E-1
2.464432870E0,-2.549099922E-2,4.589200020E-2,1.946769953E-1
2.478439780E0,-2.202299982E-2,8.942399919E-2,1.926250011E-1
2.492445865E0,2.366499975E-2,7.950899750E-2,2.135760039E-1
2.506452717E0,2.366499975E-2,7.950899750E-2,2.135760039E-1
2.520460303E0,3.243900090E-2,5.017099902E-2,2.086019963E-1
2.534467159E0,2.403599955E-2,3.705700114E-2,2.136559933E-1
2.548473327E0,-1.841199957E-2,2.255200036E-2,1.585959941E-1
2.562480211E0,-1.841199957E-2,2.255200036E-2,1.585959941E-1
2.576487794E0,6.324999966E-3,2.525299974E-2,1.085129976E-1
2.590494625E0,7.209000178E-3,6.473299861E-2,1.684889942E-1
2.604500678E0,7.209000178E-3,6.473299861E-2,1.684889942E-1
2.618507548E0,1.689999923E-2,3.942799941E-2,2.234600037E-1
2.632515154E0,3.763000015E-3,3.095399961E-2,2.664549947E-1
2.646521962E0,3.763000015E-3,3.095399961E-2,2.664549947E-1
2.660528025E0,-4.922000226E-3,-1.132300030E-2,2.373570055E-1
2.674534904E0,9.477999993E-3,9.899999714E-5,1.612740010E-1
2.688542548E0,3.046000004E-2,4.036799818E-2,1.633069962E-1
2.702549390E0,3.046000004E-2,4.036799818E-2,1.633069962E-1
2.716555461E0,2.460400015E-2,6.321500242E-2,1.722469926E-1
2.730562255E0,-2.171600051E-2,4.724299908E-2,2.112269998E-1
2.744569865E0,-2.171600051E-2,4.724299908E-2,2.112269998E-1
2.758576707E0,1.447600033E-2,8.152599633E-2,7.739599794E-2
2.772582732E0,2.551800013E-2,9.423799813E-2,1.085160002E-1
2.786589592E0,2.551800013E-2,9.423799813E-2,1.085160002E-1
2.800597227E0,3.204499930E-2,-2.120899968E-2,2.854450047E-1
2.814604064E0,1.019299962E-2,-3.095199913E-2,3.476510048E-1
2.828610097E0,-3.076799959E-2,1.791499928E-2,4.128339887E-1
2.842616953E0,-3.076799959E-2,1.791499928E-2,4.128339887E-1
2.856624497E0,-3.894099966E-2,2.471400052E-2,1.397109926E-1
2.870631357E0,7.686299831E-2,3.571299836E-2,-8.208000101E-3
2.884637511E0,7.686299831E-2,3.571299836E-2,-8.208000101E-3
2.898644269E0,7.955799997E-2,4.458799958E-2,1.348419935E-1
2.912651880E0,-2.638000064E-3,6.791300327E-2,2.288399935E-1
2.926658712E0,-2.638000064E-3,6.791300327E-2,2.288399935E-1
2.940664808E0,-1.651499979E-2,5.616899952E-2,2.288970053E-1
2.954671683E0,2.919900045E-2,6.838300079E-2,1.109070033E-1
2.968679279E0,1.827600040E-2,6.777200103E-2,5.587000027E-2
2.982686111E0,1.827600040E-2,6.777200103E-2,5.587000027E-2
2.996692183E0,-3.062000033E-3,5.736200139E-2,1.108150035E-1
3.010699063E0,9.057999589E-3,7.822999731E-3,1.929010004E-1
3.024706697E0,9.057999589E-3,7.822999731E-3,1.929010004E-1
3.038713567E0,8.566999808E-3,-2.253700048E-2,2.599560022E-1
3.052719692E0,1.753999968E-3,-7.922000252E-3,2.358700037E-1
3.066726548E0,1.753999968E-3,-7.922000252E-3,2.358700037E-1
3.080734169E0,2.675100043E-2,1.253299974E-2,1.658319980E-1
3.094741048E0,3.427800164E-2,5.908799917E-2,1.758890003E-1
3.108747145E0,7.000999991E-3,7.800800353E-2,1.759629995E-1
3.122754005E0,7.000999991E-3,7.800800353E-2,1.759629995E-1
3.136761625E0,-3.637999995E-3,7.647000253E-2,1.949629933E-1
3.150768481E0,6.874000188E-3,2.456399985E-2,2.119400054E-1
3.164774549E0,6.874000188E-3,2.456399985E-2,2.119400054E-1
3.178781409E0,-1.054100040E-2,1.442900021E-2,2.069620043E-1
3.192789053E0,2.490000054E-2,5.337600037E-2,2.020149976E-1
3.206795860E0,2.490000054E-2,5.337600037E-2,2.020149976E-1
3.220801909E0,9.436000139E-3,6.858500093E-2,1.709669977E-1
3.234808645E0,-1.039300021E-2,4.797999933E-2,1.419370025E-1
3.248816285E0,7.988999598E-3,1.131500024E-2,1.519130021E-1
3.262823102E0,7.988999598E-3,1.131500024E-2,1.519130021E-1
3.276829097E0,6.155199930E-2,-3.501000116E-3,1.638630033E-1
3.290835929E0,8.142899722E-2,8.933999576E-3,1.638219953E-1
3.304843530E0,8.142899722E-2,8.933999576E-3,1.638219953E-1
3.318850342E0,2.429799922E-2,3.428899869E-2,2.237579972E-1
3.332856395E0,-2.007500082E-2,2.920899913E-2,1.846310049E-1
3.346863231E0,-2.007500082E-2,2.920899913E-2,1.846310049E-1
3.360870855E0,1.314099971E-2,2.889299951E-2,1.466729939E-1
3.374877717E0,6.927700341E-2,3.425500169E-2,2.016869932E-1
3.388883746E0,2.731999941E-2,3.846700117E-2,2.085949928E-1
3.402890597E0,2.731999941E-2,3.846700117E-2,2.085949928E-1
3.416898226E0,-1.785599999E-2,5.606799945E-2,1.845999956E-1
3.430905101E0,-6.837000139E-3,1.094480008E-1,1.177780032E-1
3.444911182E0,-6.837000139E-3,1.094480008E-1,1.177780032E-1
3.458918092E0,5.799999926E-3,2.999899909E-2,1.997489929E-1
3.472925625E0,3.044600040E-2,-3.726400062E-2,2.787790000E-1
3.486932457E0,3.044600040E-2,-3.726400062E-2,2.787790000E-1
3.500938640E0,-1.395000028E-3,-4.330300167E-2,3.550699949E-1
3.514945404E0,-6.607499719E-2,-9.111000225E-3,1.969559938E-1
3.528953053E0,5.698000081E-3,1.840999909E-2,1.787699945E-2
3.542959934E0,5.698000081E-3,1.840999909E-2,1.787699945E-2
3.556966006E0,1.012509987E-1,5.691700056E-2,9.891700000E-2
3.570972881E0,6.783899665E-2,5.051299930E-2,2.739109993E-1
3.584980521E0,6.783899665E-2,5.051299930E-2,2.739109993E-1
3.598987357E0,2.652600035E-2,3.187799826E-2,2.999179959E-1
3.612993410E0,-4.999000113E-3,3.820300102E-2,1.779399961E-1
3.627000237E0,-4.999000113E-3,3.820300102E-2,1.779399961E-1
3.641007852E0,1.598400064E-2,7.245700061E-2,7.486999780E-2
3.655014636E0,2.485699952E-2,5.784000084E-2,1.687690020E-1
3.669020785E0,4.471899942E-2,1.287300047E-2,2.047729939E-1
3.683027583E0,4.471899942E-2,1.287300047E-2,2.047729939E-1
3.697035184E0,-1.299999985E-5,-1.399600040E-2,2.569220066E-1
3.711042039E0,-4.974799976E-2,-5.109000020E-3,1.448750049E-1
3.725048088E0,-4.974799976E-2,-5.109000020E-3,1.448750049E-1
3.739054895E0,2.272699960E-2,1.295000035E-2,1.378940046E-1
3.753062506E0,4.662299901E-2,2.285999991E-2,2.170429975E-1
3.767069357E0,4.662299901E-2,2.285999991E-2,2.170429975E-1
3.781075420E0,-9.955000132E-3,1.586900093E-2,3.101530075E-1
3.795082213E0,-2.083200030E-2,3.639199957E-2,2.571110129E-1
3.809089766E0,2.307000104E-3,4.327100143E-2,1.640529931E-1
3.823096641E0,2.307000104E-3,4.327100143E-2,1.640529931E-1
3.837102728E0,2.961299941E-2,6.429500133E-2,9.697300196E-2
3.851109574E0,5.274400115E-2,7.488399744E-2,1.330080032E-1
3.865117208E0,5.274400115E-2,7.488399744E-2,1.330080032E-1
3.879124093E0,3.631599993E-2,5.254200101E-2,2.310349941E-1
3.893130156E0,1.703600027E-2,3.597399965E-2,2.169370055E-1
3.907136973E0,1.651100069E-2,9.197000414E-3,1.828660071E-1
3.921144496E0,1.651100069E-2,9.197000414E-3,1.828660071E-1
3.935151342E0,7.424999960E-3,3.316799924E-2,1.637919992E-1
3.949157410E0,1.800000064E-5,4.056100175E-2,1.276410073E-1
3.963164237E0,1.800000064E-5,4.056100175E-2,1.276410073E-1
3.977171837E0,1.638199948E-2,2.013799921E-2,3.651199862E-2
3.991178693E0,4.498900101E-2,3.588800132E-2,1.615429968E-1
4.005184731E0,4.498900101E-2,3.588800132E-2,1.615429968E-1
4.019191615E0,3.054199927E-2,-2.378999954E-3,2.324730009E-1
4.033199140E0,-1.030599978E-2,-1.028699987E-2,2.304259986E-1
4.047205967E0,9.260000079E-4,4.806600139E-2,1.565140039E-1
4.061212024E0,9.260000079E-4,4.806600139E-2,1.565140039E-1
4.075218838E0,1.643100008E-2,1.170160025E-1,1.346500069E-1
4.089226405E0,-6.643000059E-3,5.857999995E-2,1.895810068E-1
4.103233247E0,-6.643000059E-3,5.857999995E-2,1.895810068E-1
4.117239357E0,1.929000020E-3,-8.907999843E-3,2.837319970E-1
4.131246194E0,-1.491599996E-2,1.043000026E-3,4.149039984E-1
4.145253765E0,-1.491599996E-2,1.043000026E-3,4.149039984E-1
4.159260655E0,-4.986400157E-2,2.721500024E-2,2.377370000E-1
4.173266756E0,2.856400050E-2,3.246000037E-2,-4.251999781E-3
4.187273530E0,7.773700356E-2,5.283400044E-2,-1.148000010E-3
4.201281111E0,7.773700356E-2,5.283400044E-2,-1.148000010E-3
4.215287981E0,1.319099963E-2,6.153099984E-2,1.228030026E-1
4.229294043E0,3.674000036E-3,4.589400068E-2,2.207999974E-1
4.243300895E0,3.674000036E-3,4.589400068E-2,2.207999974E-1
4.257308390E0,2.999499999E-2,2.989099920E-2,2.428350002E-1
4.271315231E0,3.233999945E-3,3.445199877E-2,2.118030041E-1
4.285321327E0,3.233999945E-3,3.445199877E-2,2.118030041E-1
4.299328212E0,5.539000034E-3,2.313500084E-2,1.497569978E-1
4.313335880E0,3.088100068E-2,-8.516999893E-3,1.658460051E-1
4.327342645E0,1.924400032E-2,2.113500051E-2,1.899189949E-1
4.341348760E0,1.924400032E-2,2.113500051E-2,1.899189949E-1
4.355355558E0,1.703199930E-2,5.240999907E-2,1.898330003E-1
4.369363140E0,3.916199878E-2,5.493999925E-3,2.088000029E-1
4.383369976E0,3.916199878E-2,5.493999925E-3,2.088000029E-1
4.397376131E0,3.066799976E-2,1.425900031E-2,1.948589981E-1
4.411383005E0,-3.609099984E-2,5.439599976E-2,1.499059945E-1
4.425390539E0,-3.609099984E-2,5.439599976E-2,1.499059945E-1
4.439397386E0,-2.728299983E-2,6.190999970E-2,6.579399854E-2
4.453403454E0,4.597499967E-2,6.225100160E-2,7.467199862E-2
4.467410351E0,5.820199847E-2,5.228000134E-2,1.206289977E-1
4.481417966E0,5.820199847E-2,5.228000134E-2,1.206289977E-1
4.495424731E0,-1.969899982E-2,2.857599966E-2,2.236260027E-1
4.509430788E0,-1.396699995E-2,2.642700076E-2,2.015900016E-1
4.523437679E0,-1.396699995E-2,2.642700076E-2,2.015900016E-1
4.537445232E0,5.018999800E-3,-6.569999969E-4,1.495649964E-1
4.551452082E0,3.233199939E-2,4.097000137E-2,1.565439999E-1
4.565458131E0,3.233199939E-2,4.097000137E-2,1.565439999E-1
4.579464933E0,-1.487699989E-2,3.930300102E-2,1.634979993E-1
4.593472587E0,-2.256999956E-3,8.067999966E-3,1.013849974E-1
4.607479433E0,5.899000168E-2,2.775900066E-2,1.394309998E-1
4.621485476E0,5.899000168E-2,2.775900066E-2,1.394309998E-1
4.635492304E0,3.553799912E-2,1.574099995E-2,2.634750009E-1
4.649499857E0,-1.427900046E-2,-1.126900036E-2,2.834390104E-1
4.663506693E0,-1.427900046E-2,-1.126900036E-2,2.834390104E-1
4.677512775E0,-9.042000398E-3,2.080399916E-2,2.015209943E-1
4.691519645E0,3.062899970E-2,1.137079969E-1,1.058119982E-1
4.705527173E0,3.062899970E-2,1.137079969E-1,1.058119982E-1
4.719534039E0,-9.820000269E-3,2.837399952E-2,1.808190048E-1
4.733540060E0,8.944000117E-3,-4.383499920E-2,2.548629940E-1
4.747546920E0,5.940999836E-3,-2.232000045E-2,3.821179867E-1
4.761554563E0,5.940999836E-3,-2.232000045E-2,3.821179867E-1
4.775561433E0,-2.882499993E-2,2.596399933E-2,2.739660144E-1
4.789567418E0,3.338000039E-3,1.884699985E-2,1.487100031E-2
4.803574255E0,3.338000039E-3,1.884699985E-2,1.487100031E-2
4.817581843E0,8.828199655E-2,1.788800023E-2,5.097199976E-2
4.831588678E0,2.783899941E-2,5.379600078E-2,1.690520048E-1
4.845594798E0,2.783899941E-2,5.379600078E-2,1.690520048E-1
4.859601572E0,1.248999964E-3,5.549300089E-2,1.711129993E-1
4.873609236E0,7.488000207E-3,6.716500223E-2,1.281400025E-1
4.887616063E0,-4.273000173E-3,8.201300353E-2,1.281390041E-1
4.901622135E0,-4.273000173E-3,8.201300353E-2,1.281390041E-1
4.915629010E0,-2.143399976E-2,4.230900109E-2,2.091919929E-1
4.929636549E0,-1.368399989E-2,-2.001399919E-2,2.983700037E-1
4.943643428E0,-1.368399989E-2,-2.001399919E-2,2.983700037E-1
4.957649510E0,3.635599837E-2,-2.960900031E-2,3.655920029E-1
4.971656327E0,2.238399908E-2,-2.654800005E-2,2.025430053E-1
4.985663847E0,2.238399908E-2,-2.654800005E-2,2.025430053E-1
4.999670693E0,2.752299979E-2,-7.770999800E-3,1.144910008E-1
5.013676765E0,1.759699918E-2,4.802700132E-2,8.055900037E-2
5.027683611E0,-1.432100032E-2,9.694500268E-2,1.506959945E-1
5.041691135E0,-1.432100032E-2,9.694500268E-2,1.506959945E-1
5.055697943E0,-5.064700171E-2,7.265300304E-2,1.767800003E-1
5.069704034E0,-7.180999964E-3,1.914500073E-2,2.198289931E-1
5.083710895E0,-7.180999964E-3,1.914500073E-2,2.198289931E-1
5.097718394E0,3.687399998E-2,4.070800170E-2,2.269009948E-1
5.111725250E0,4.059400037E-2,5.172299966E-2,2.441360056E-1
5.125731327E0,4.059400037E-2,5.172299966E-2,2.441360056E-1
5.139738179E0,3.352800012E-2,3.473399952E-2,2.152570039E-1
5.153745779E0,1.300099958E-2,1.571499929E-2,1.412300020E-1
5.167752553E0,1.502900012E-2,9.050000226E-4,1.122300029E-1
5.181758640E0,1.502900012E-2,9.050000226E-4,1.122300029E-1
5.195765514E0,1.706800051E-2,2.391700074E-2,1.983440071E-1
5.209773154E0,1.085599978E-2,1.192499977E-2,2.253309935E-1
5.223779928E0,1.085599978E-2,1.192499977E-2,2.253309935E-1
5.237785976E0,9.208999574E-3,1.315000001E-2,1.743250042E-1
5.251792846E0,3.069400042E-2,1.746200025E-2,1.945389956E-1
5.265800419E0,3.069400042E-2,1.746200025E-2,1.945389956E-1
5.279807255E0,2.383599989E-2,3.016800061E-2,2.086549997E-1
5.293813303E0,-2.345200069E-2,1.407499984E-2,1.986549944E-1
5.307820159E0,-2.286799997E-2,4.816700146E-2,1.108160019E-1
5.321827707E0,-2.286799997E-2,4.816700146E-2,1.108160019E-1
5.335834578E0,1.401999965E-2,5.361099914E-2,1.779949963E-1
5.349840616E0,2.374199964E-2,-1.703299955E-2,2.929019928E-1
5.363847448E0,2.374199964E-2,-1.703299955E-2,2.929019928E-1
5.377854995E0,1.020000037E-2,-1.881100051E-2,3.360660076E-1
5.391861822E0,-3.067499958E-2,-4.213000182E-3,3.981969953E-1
5.405867918E0,-3.067499958E-2,-4.213000182E-3,3.981969953E-1
5.419874746E0,-4.029000178E-3,1.645500027E-2,8.478599787E-2
5.433882308E0,7.601000369E-2,6.802000105E-3,-4.228400066E-2
5.447889183E0,6.611199677E-2,6.079100072E-2,9.577699751E-2
5.461895290E0,6.611199677E-2,6.079100072E-2,9.577699751E-2
5.475902145E0,2.456000075E-3,6.160100177E-2,2.348549962E-1
5.489909689E0,-1.309200004E-2,4.890500009E-2,2.138970047E-1
5.503916535E0,-1.309200004E-2,4.890500009E-2,2.138970047E-1
5.517922607E0,1.621700078E-2,4.936999828E-2,1.849119961E-1
5.531929400E0,2.871200070E-2,5.183999985E-2,1.489499956E-1
5.545937011E0,2.871200070E-2,5.183999985E-2,1.489499956E-1
5.559943876E0,-3.339700028E-2,3.255699947E-2,1.919910014E-1
5.573949944E0,2.186000114E-3,-5.127000157E-3,2.111680061E-1
5.587956732E0,1.521699969E-2,1.066299994E-2,1.542409956E-1
5.601964319E0,1.521699969E-2,1.066299994E-2,1.542409956E-1
5.615971199E0,4.767000210E-3,1.403899956E-2,1.352930069E-1
5.629977165E0,3.738199919E-2,2.317400090E-2,1.803939939E-1
5.643983973E0,3.738199919E-2,2.317400090E-2,1.803939939E-1
5.657991535E0,3.696100041E-2,2.595899999E-2,2.905839980E-1
5.671998265E0,-1.028400008E-2,2.097200043E-2,2.867040038E-1
5.686004362E0,-1.028400008E-2,2.097200043E-2,2.867040038E-1
5.700011212E0,-3.050700016E-2,4.949299991E-2,2.146909982E-1
5.714018760E0,1.834399998E-2,4.941400141E-2,1.426739991E-1
5.728025616E0,2.494399995E-2,4.571200162E-2,1.137000024E-1
5.742031649E0,2.494399995E-2,4.571200162E-2,1.137000024E-1
5.756038491E0,1.189999981E-3,5.240200087E-2,1.688389927E-1
5.770046015E0,3.558700159E-2,4.845499992E-2,2.118930072E-1
5.784052875E0,3.558700159E-2,4.845499992E-2,2.118930072E-1
5.798058991E0,4.311399907E-2,1.929300092E-2,2.268670052E-1
5.812065870E0,2.234500088E-2,3.497200087E-2,2.358279973E-1
5.826073361E0,2.234500088E-2,3.497200087E-2,2.358279973E-1
5.840080212E0,1.067200024E-2,1.084499992E-2,1.757950038E-1
5.854086323E0,6.854999810E-3,8.499999967E-5,1.477220058E-1
5.868093116E0,-1.837600023E-2,2.435199916E-2,1.355810016E-1
5.882100770E0,-1.837600023E-2,2.435199916E-2,1.355810016E-1
5.896107665E0,1.671499945E-2,3.603100032E-2,1.547469944E-1
5.910113626E0,2.893999964E-2,3.658000007E-2,2.239049971E-1
5.924120477E0,2.893999964E-2,3.658000007E-2,2.239049971E-1
5.938128127E0,-1.104199979E-2,2.513499931E-2,2.339569926E-1
5.952134910E0,-1.559999958E-2,2.329899929E-2,1.958640069E-1
5.966140953E0,-1.559999958E-2,2.329899929E-2,1.958640069E-1
5.980147828E0,4.460199922E-2,1.074910015E-1,3.311700001E-2
5.994155367E0,2.615099959E-2,5.508000031E-2,1.241160035E-1
6.008162175E0,2.507700026E-2,-2.460799925E-2,2.390680015E-1
6.022168218E0,2.507700026E-2,-2.460799925E-2,2.390680015E-1
6.036175098E0,1.853200048E-2,-2.990799956E-2,4.064970016E-1
6.050182645E0,-3.785499930E-2,-7.242000196E-3,3.542999923E-1
6.064189531E0,-3.785499930E-2,-7.242000196E-3,3.542999923E-1
6.078195593E0,6.331999786E-3,2.116099931E-2,9.499099851E-2
6.092202357E0,1.062870026E-1,1.690299995E-2,1.050330028E-1
6.106209948E0,1.062870026E-1,1.690299995E-2,1.050330028E-1
6.120216813E0,7.433900237E-2,3.078999929E-2,2.170230001E-1
6.134222809E0,5.148999859E-3,7.759799808E-2,2.439039946E-1
6.148229617E0,3.575999988E-3,7.926400006E-2,1.737840027E-1
6.162237208E0,3.575999988E-3,7.926400006E-2,1.737840027E-1
6.176243962E0,1.525299996E-2,9.366600215E-2,9.974200279E-2
6.190250044E0,-1.448000036E-2,4.148999974E-2,1.117260009E-1
6.204256876E0,-1.448000036E-2,4.148999974E-2,1.117260009E-1
6.218264424E0,5.456999876E-3,1.458100043E-2,1.977729946E-1
6.232271290E0,-1.195500046E-2,3.418099880E-2,3.609429896E-1
6.246277381E0,-1.195500046E-2,3.418099880E-2,3.609429896E-1
6.260284145E0,-5.181699991E-2,3.160699829E-2,2.287749946E-1
6.274291708E0,3.391499817E-2,-2.483499981E-2,1.905390024E-1
6.288298573E0,8.172199875E-2,-7.694999874E-2,1.993940026E-1
6.302304569E0,8.172199875E-2,-7.694999874E-2,1.993940026E-1
6.316311419E0,7.716400176E-2,-4.699000157E-3,2.144780010E-1
6.330319040E0,2.554400079E-2,6.019400060E-2,1.855050027E-1
6.344325799E0,2.554400079E-2,6.019400060E-2,1.855050027E-1
6.358331920E0,-3.425500169E-2,1.027759984E-1,1.834129989E-1
6.372338780E0,-1.056800038E-2,8.699099720E-2,2.432560027E-1
6.386346337E0,-1.056800038E-2,8.699099720E-2,2.432560027E-1
6.400353223E0,1.388399955E-2,6.332399696E-2,1.919880062E-1
6.414359295E0,3.189900145E-2,3.574100137E-2,1.638710052E-1
6.428366059E0,4.306900129E-2,2.876999974E-2,8.873400092E-2
6.442373655E0,2.890999988E-2,1.327299979E-2,4.863400012E-2
6.456380482E0,2.890999988E-2,1.327299979E-2,4.863400012E-2
6.470386459E0,-3.692999948E-3,2.765900083E-2,8.669900149E-2
6.484393314E0,-3.692999948E-3,2.765900083E-2,8.669900149E-2
6.498400842E0,1.162000000E-3,6.321799755E-2,2.277819961E-1
6.512407664E0,2.987200022E-2,5.855600163E-2,2.397270054E-1
6.526413726E0,2.987200022E-2,5.855600163E-2,2.397270054E-1
6.540420491E0,5.437799916E-2,4.668400064E-2,2.350420058E-1
6.554428092E0,3.893300146E-2,2.431299910E-2,3.104000092E-1
6.568434923E0,3.775000107E-3,-5.812999979E-2,2.984290123E-1
6.582440923E0,3.775000107E-3,-5.812999979E-2,2.984290123E-1
6.596447774E0,-3.162499890E-2,2.278000116E-3,2.072090060E-1
6.610455261E0,5.430399999E-2,6.800799817E-2,2.739199996E-2
6.624462154E0,5.430399999E-2,6.800799817E-2,2.739199996E-2
6.638468208E0,8.579000086E-2,5.468500033E-2,1.184260026E-1
6.652475049E0,8.374500275E-2,2.927600034E-2,2.903189957E-1
6.666482616E0,8.374500275E-2,2.927600034E-2,2.903189957E-1
6.680489458E0,5.017799884E-2,-5.241999868E-3,4.086360037E-1
6.694495549E0,-3.927800059E-2,-1.431999961E-3,2.934400141E-1
6.708502351E0,-3.450600058E-2,4.563499987E-2,1.301799994E-2
6.722509958E0,-3.450600058E-2,4.563499987E-2,1.301799994E-2
6.736516731E0,8.308800310E-2,5.874599889E-2,-1.405499969E-2
6.750522789E0,7.328300178E-2,3.387400135E-2,1.679210067E-1
6.764529606E0,7.328300178E-2,3.387400135E-2,1.679210067E-1
6.778537111E0,1.404999988E-3,1.388099976E-2,2.158520073E-1
6.792543929E0,9.778999723E-3,3.174999962E-3,2.188919932E-1
6.806550006E0,9.778999723E-3,3.174999962E-3,2.188919932E-1
6.820556842E0,2.517100051E-2,3.359499946E-2,2.038349956E-1
6.834564409E0,2.543000039E-3,8.581499755E-2,1.657119989E-1
6.848571193E0,-1.605599932E-2,8.977600187E-2,1.397330016E-1
6.862577289E0,-1.605599932E-2,8.977600187E-2,1.397330016E-1
6.876584107E0,1.507300045E-2,4.190000147E-2,1.949869990E-1
6.890591688E0,7.672000211E-3,-3.219000064E-3,1.851090044E-1
6.904598495E0,7.672000211E-3,-3.219000064E-3,1.851090044E-1
6.918604524E0,6.312000006E-2,-1.446800027E-2,2.191379964E-1
6.932611304E0,5.208000168E-2,8.023999631E-3,2.741639912E-1
6.946618914E0,5.208000168E-2,8.023999631E-3,2.741639912E-1
6.960625708E0,3.880799934E-2,3.553200141E-2,2.691639960E-1
6.974631799E0,-5.152999889E-3,6.016299874E-2,1.710460037E-1
6.988638669E0,4.708999768E-3,5.212400109E-2,8.897999674E-2
7.002646194E0,4.708999768E-3,5.212400109E-2,8.897999674E-2
7.016653054E0,3.879800066E-2,5.529899895E-2,1.709969938E-1
7.030659045E0,5.224499851E-2,4.466899857E-2,1.660580039E-1
7.044665857E0,5.224499851E-2,4.466899857E-2,1.660580039E-1
7.058673473E0,3.146100044E-2,5.125999823E-2,1.801140010E-1
7.072680242E0,1.527099963E-2,4.625799879E-2,1.950480044E-1
7.086686314E0,1.527099963E-2,4.625799879E-2,1.950480044E-1
7.100693049E0,1.315900031E-2,3.735399991E-2,2.019920051E-1
7.114700670E0,2.975899912E-2,2.074999921E-2,2.069060057E-1
7.128707463E0,2.710999921E-3,7.151999976E-3,1.557140052E-1
7.142713569E0,2.710999921E-3,7.151999976E-3,1.557140052E-1
7.156720473E0,2.447899990E-2,4.097500071E-2,1.007060036E-1
7.170727982E0,2.686700039E-2,2.539600059E-2,2.188899964E-1
7.184734813E0,2.686700039E-2,2.539600059E-2,2.188899964E-1
7.198740919E0,9.697999805E-3,2.329299971E-2,2.618460059E-1
7.212747703E0,-9.091000073E-3,2.863599919E-2,2.226449996E-1
7.226755318E0,-9.091000073E-3,2.863599919E-2,2.226449996E-1
7.240762112E0,9.111099690E-2,8.934099972E-2,6.785000116E-2
7.254768193E0,6.250199676E-2,8.059799671E-2,1.829099953E-1
7.268775039E0,-3.564999904E-3,1.250899956E-2,2.187449932E-1
7.282782577E0,-3.564999904E-3,1.250899956E-2,2.187449932E-1
7.296789452E0,1.044099964E-2,6.109999958E-4,3.019590080E-1
7.310795487E0,1.514299959E-2,3.930999897E-3,2.637459934E-1
7.324802323E0,1.514299959E-2,3.930999897E-3,2.637459934E-1
7.338809880E0,1.872999966E-2,3.295899928E-2,2.645099908E-2
7.352816683E0,7.088299841E-2,6.973499805E-2,4.845400155E-2
7.366822721E0,7.088299841E-2,6.973499805E-2,4.845400155E-2
7.380829482E0,3.490399942E-2,6.065399945E-2,2.184530050E-1
7.394837106E0,2.377199940E-2,2.676000074E-2,2.083829939E-1
7.408843875E0,-5.359000061E-3,1.351299975E-2,2.083130032E-1
7.422849928E0,-5.359000061E-3,1.351299975E-2,2.083130032E-1
7.436856808E0,4.358000122E-3,3.112100065E-2,1.862390041E-1
7.450864318E0,5.673000123E-3,5.016399920E-2,1.551200002E-1
7.464871149E0,5.673000123E-3,5.016399920E-2,1.551200002E-1
7.478877149E0,6.821999792E-3,2.520900033E-2,1.630620062E-1
7.492883986E0,3.583500162E-2,1.212599967E-2,2.272229940E-1
7.506891520E0,3.583500162E-2,1.212599967E-2,2.272229940E-1
7.520898390E0,1.052299980E-2,5.076999776E-3,3.303419948E-1
7.534904496E0,1.724000089E-2,-2.665700018E-2,2.872689962E-1
7.548911246E0,5.473300070E-2,-2.211700007E-2,1.792300045E-1
7.562918871E0,5.473300070E-2,-2.211700007E-2,1.792300045E-1
7.576925631E0,4.536499828E-2,9.479000233E-3,1.672679931E-1
7.590931688E0,-1.551999990E-2,5.307500064E-2,1.741590053E-1
7.604938568E0,-1.551999990E-2,5.307500064E-2,1.741590053E-1
7.618946097E0,1.230399963E-2,7.187499851E-2,2.100680023E-1
7.632953006E0,3.430999815E-2,5.700799823E-2,2.769509852E-1
7.646958972E0,3.430999815E-2,5.700799823E-2,2.769509852E-1
7.660965828E0,3.537400067E-2,2.485900000E-2,1.837999970E-1
7.674973346E0,3.444200009E-2,4.994000122E-2,9.480100125E-2
7.688980208E0,1.491199993E-2,4.157099873E-2,9.479200095E-2
7.702986289E0,1.491199993E-2,4.157099873E-2,9.479200095E-2
7.716993020E0,2.083200030E-2,4.001099989E-2,1.738280058E-1
7.731000612E0,6.144999992E-3,3.297999967E-3,2.267300040E-1
7.745007367E0,6.144999992E-3,3.297999967E-3,2.267300040E-1
7.759013492E0,2.726400085E-2,1.340499986E-2,1.235840023E-1
7.773020323E0,9.397599846E-2,2.235800028E-2,1.696870029E-1
7.787027871E0,9.397599846E-2,2.235800028E-2,1.696870029E-1
7.801034765E0,5.393199995E-2,1.250400022E-2,3.826999962E-1
7.815040765E0,-3.019900061E-2,1.690099947E-2,2.456299961E-1
7.829047613E0,-2.501500025E-2,9.394999593E-3,1.169160008E-1
7.843055117E0,-2.501500025E-2,9.394999593E-3,1.169160008E-1
7.857061968E0,-2.005700022E-2,5.998900160E-2,1.771859974E-1
7.871068011E0,-5.024499819E-2,1.303199958E-2,2.889550030E-1
7.885074848E0,-5.024499819E-2,1.303199958E-2,2.889550030E-1
7.899082415E0,-1.903299987E-2,3.019900061E-2,3.760839999E-1
7.913089203E0,-4.600999877E-3,6.489899755E-2,3.803449869E-1
7.927095271E0,-4.600999877E-3,6.489899755E-2,3.803449869E-1
7.941102006E0,-2.557300031E-2,6.440000236E-2,6.738000363E-2
7.955109588E0,1.147599984E-2,5.700900033E-2,-6.253399700E-2
7.969116391E0,5.785600096E-2,3.371699899E-2,-3.838999942E-2
7.983122482E0,5.785600096E-2,3.371699899E-2,-3.838999942E-2
7.997129342E0,1.017600019E-2,8.050700277E-2,2.863300033E-2
8.011136843E0,-1.224800013E-2,8.999799937E-2,1.515019983E-1
8.025143679E0,-1.224800013E-2,8.999799937E-2,1.515019983E-1
8.039149722E0,1.578499936E-2,7.496400177E-2,1.963499933E-1
8.053156567E0,2.216999885E-3,4.627199844E-2,1.511999965E-1
8.067164102E0,-1.613200083E-2,-8.057000116E-3,9.805099666E-2
8.081170948E0,-1.613200083E-2,-8.057000116E-3,9.805099666E-2
8.095176910E0,3.588800132E-2,-2.906000009E-3,1.310649961E-1
8.109183747E0,4.628499970E-2,-1.013300009E-2,2.491039932E-1
8.123191276E0,4.628499970E-2,-1.013300009E-2,2.491039932E-1
8.137198112E0,3.207200021E-2,-4.714899883E-2,2.269739956E-1
8.151204122E0,6.686700135E-2,2.703000093E-3,1.699610054E-1
8.165210973E0,6.686700135E-2,2.703000093E-3,1.699610054E-1
8.179218511E0,3.997299820E-2,8.763000369E-2,2.390539944E-1
8.193225348E0,-1.052900031E-2,7.382799685E-2,2.680180073E-1
8.207231406E0,-5.423000082E-3,4.893000051E-2,1.768610030E-1
8.221238159E0,-5.423000082E-3,4.893000051E-2,1.768610030E-1
8.235245746E0,2.431800030E-2,5.069399998E-2,1.547130048E-1
8.249252515E0,1.623000018E-2,9.328100085E-2,1.406289935E-1
8.263258582E0,1.623000018E-2,9.328100085E-2,1.406289935E-1
8.277265323E0,4.796999972E-3,6.625600159E-2,1.476140022E-1
8.291272957E0,-1.234200038E-2,1.933900081E-2,1.835439950E-1
8.305279736E0,-1.234200038E-2,1.933900081E-2,1.835439950E-1
8.319285841E0,1.314700022E-2,1.621000003E-3,2.054840028E-1
8.333292655E0,4.242900014E-2,4.772999790E-3,1.644749939E-1
8.347300284E0,2.827399969E-2,1.857700013E-2,1.784850061E-1
8.361307053E0,2.827399969E-2,1.857700013E-2,1.784850061E-1
8.375313164E0,3.463999927E-2,2.398000099E-3,2.624489963E-1
8.389319942E0,-2.639899962E-2,-7.386100292E-2,3.361980021E-1
8.403327481E0,-2.639899962E-2,-7.386100292E-2,3.361980021E-1
8.417334231E0,-3.945900127E-2,1.391300000E-2,2.513100021E-2
8.431340322E0,8.501899987E-2,1.666149944E-1,1.736080050E-1
8.445347178E0,8.501899987E-2,1.666149944E-1,1.736080050E-1
8.459354679E0,-8.883999661E-3,4.439200088E-2,2.365300059E-1
8.473361521E0,6.006000098E-3,-6.226199865E-2,2.794669867E-1
8.487367568E0,2.931999974E-3,1.004599966E-2,4.067179859E-1
8.501374428E0,2.931999974E-3,1.004599966E-2,4.067179859E-1
8.515381991E0,9.882999584E-3,6.560599804E-2,1.957110018E-1
8.529388890E0,3.548799828E-2,6.150599942E-2,-2.734299935E-2
8.543394871E0,3.548799828E-2,6.150599942E-2,-2.734299935E-2
8.557401755E0,7.203499973E-2,4.974099994E-2,3.566699848E-2
8.571409304E0,-9.011999704E-3,2.738999901E-3,2.246209979E-1
8.585416116E0,-9.011999704E-3,2.738999901E-3,2.246209979E-1
8.599422164E0,-1.228300016E-2,4.910999909E-3,2.296099961E-1
8.613429025E0,1.250700001E-2,3.935299814E-2,2.146259993E-1
8.627436588E0,3.520000027E-3,7.841400057E-2,1.716099977E-1
8.641443410E0,3.520000027E-3,7.841400057E-2,1.716099977E-1
8.655449496E0,-3.962400183E-2,3.755300120E-2,1.355209947E-1
8.669456299E0,3.369700164E-2,4.180000164E-3,1.384650022E-1
8.683463938E0,3.369700164E-2,4.180000164E-3,1.384650022E-1
8.697470722E0,5.941599980E-2,2.531399950E-2,1.786160022E-1
8.711476789E0,5.824999884E-3,1.161000039E-2,2.486100048E-1
8.725483539E0,5.824999884E-3,1.161000039E-2,2.486100048E-1
8.739491087E0,3.991499916E-2,8.855000138E-3,2.175270021E-1
8.753497866E0,7.755400240E-2,4.298900068E-2,1.975159943E-1
8.767503925E0,1.211099979E-2,7.550799847E-2,2.196210027E-1
8.781510627E0,1.211099979E-2,7.550799847E-2,2.196210027E-1
8.795518280E0,-2.831600048E-2,4.209800065E-2,1.356029958E-1
8.809525049E0,1.555899996E-2,3.188399971E-2,1.524869949E-1
8.823531112E0,1.555899996E-2,3.188399971E-2,1.524869949E-1
8.837537863E0,1.281599980E-2,2.795000002E-2,1.933829933E-1
8.851545502E0,3.322499990E-2,4.596300051E-2,2.173990011E-1
8.865552260E0,3.322499990E-2,4.596300051E-2,2.173990011E-1
8.879558323E0,-5.907999817E-3,4.095400125E-2,2.194110006E-1
8.893565078E0,-2.409999957E-3,1.512700040E-2,1.473360062E-1
8.907572712E0,1.469700038E-2,4.152499884E-2,1.473149955E-1
8.921579491E0,1.469700038E-2,4.152499884E-2,1.473149955E-1
8.935585534E0,4.188600183E-2,8.050999604E-3,1.333059967E-1
8.949592304E0,2.254300006E-2,9.119999595E-3,1.933269948E-1
8.963599934E0,2.254300006E-2,9.119999595E-3,1.933269948E-1
8.977606736E0,1.520499960E-2,2.844700031E-2,2.723129988E-1
8.991612876E0,-3.697000071E-2,-7.410000078E-3,2.500140071E-1
9.005619625E0,-3.697000071E-2,-7.410000078E-3,2.500140071E-1
9.019627241E0,1.287500001E-2,5.032800138E-2,6.140000187E-3
9.033634005E0,3.563600034E-2,1.035839990E-1,1.574719995E-1
9.047640135E0,-1.179299969E-2,2.484600060E-2,2.243430018E-1
9.061646885E0,-1.179299969E-2,2.484600060E-2,2.243430018E-1
9.075654501E0,2.746799961E-2,-2.426300012E-2,4.134449959E-1
9.089661246E0,-2.494999906E-3,-4.020000051E-4,4.736239910E-1
9.103667308E0,-2.494999906E-3,-4.020000051E-4,4.736239910E-1
9.117674073E0,1.050600037E-2,2.291199937E-2,1.625210047E-1
9.131681674E0,6.442999840E-2,8.602099866E-2,-9.452799708E-2
9.145688496E0,6.442999840E-2,8.602099866E-2,-9.452799708E-2
9.159694597E0,4.338100180E-2,7.043199986E-2,6.348200142E-2
9.173701323E0,2.089600079E-2,2.243000083E-2,1.884180009E-1
9.187708900E0,2.259800024E-2,2.709399909E-2,2.294130027E-1
9.201715669E0,2.259800024E-2,2.709399909E-2,2.294130027E-1
9.215721770E0,1.733599976E-2,3.289800137E-2,2.434190065E-1
9.229728501E0,-1.056499965E-2,5.182899907E-2,1.903669983E-1
9.243736120E0,-1.056499965E-2,5.182899907E-2,1.903669983E-1
9.257742847E0,-2.834999934E-3,1.974299923E-2,1.262950003E-1
9.271748934E0,2.197100036E-2,-2.889000112E-3,1.813530028E-1
9.285755693E0,2.197100036E-2,-2.889000112E-3,1.813530028E-1
9.299763327E0,3.580500185E-2,-2.171000000E-3,2.385170013E-1
9.313770136E0,3.652000101E-3,-8.355000056E-3,2.675020099E-1
9.327776198E0,3.289299831E-2,3.533999901E-3,2.123969942E-1
9.341782958E0,3.289299831E-2,3.533999901E-3,2.123969942E-1
9.355790592E0,2.720299922E-2,3.650800139E-2,1.383879930E-1
9.369797328E0,2.797600068E-2,6.720600277E-2,1.644690037E-1
9.383803399E0,2.797600068E-2,6.720600277E-2,1.644690037E-1
9.397810155E0,3.015300073E-2,9.582199901E-2,1.504479945E-1
9.411817789E0,6.931400299E-2,4.475900158E-2,1.833959967E-1
9.425824568E0,6.931400299E-2,4.475900158E-2,1.833959967E-1
9.439830669E0,2.428499982E-2,1.114599966E-2,1.593589932E-1
9.453837443E0,2.039300092E-2,6.290599704E-2,1.904010028E-1
9.467845058E0,-2.625199966E-2,5.564400181E-2,2.314630002E-1
9.481851827E0,-2.625199966E-2,5.564400181E-2,2.314630002E-1
9.495857904E0,-4.790100083E-2,2.274800092E-2,2.483630031E-1
9.509864693E0,-2.978999913E-2,-2.921899967E-2,2.052730024E-1
9.523872222E0,-2.978999913E-2,-2.921899967E-2,2.052730024E-1
9.537879077E0,3.953999840E-3,-3.328999877E-2,1.502230018E-1
9.551885183E0,4.389400035E-2,1.353999949E-3,7.519499958E-2
9.565891938E0,4.389400035E-2,1.353999949E-3,7.519499958E-2
9.579899491E0,7.234399766E-2,6.678099930E-2,1.663579941E-1
9.593906318E0,5.459300056E-2,6.385599822E-2,2.384109944E-1
9.607912438E0,6.754000206E-3,-2.573700063E-2,3.082500100E-1
9.621919231E0,6.754000206E-3,-2.573700063E-2,3.082500100E-1
9.635926780E0,4.130899906E-2,3.483600169E-2,6.330300122E-2
9.649933606E0,7.471600175E-2,9.561599791E-2,1.766490042E-1
9.663939688E0,7.471600175E-2,9.561599791E-2,1.766490042E-1
9.677946452E0,-1.931199990E-2,2.460999973E-2,2.365690023E-1
9.691953996E0,7.282000035E-3,-6.041999906E-3,3.295069933E-1
9.705960847E0,7.282000035E-3,-6.041999906E-3,3.295069933E-1
9.719966958E0,7.907999679E-3,2.001000009E-2,4.427019954E-1
9.733973732E0,7.396599650E-2,1.664900035E-2,1.856240034E-1
9.747981261E0,6.425300241E-2,4.019600153E-2,-3.438799828E-2
9.761988064E0,6.425300241E-2,4.019600153E-2,-3.438799828E-2
9.775994006E0,1.888599992E-2,1.269899961E-2,1.096429974E-1
9.790000814E0,-3.231599927E-2,3.817500174E-2,1.715549976E-1
9.804008358E0,-3.231599927E-2,3.817500174E-2,1.715549976E-1
9.818015170E0,-1.545600034E-2,6.822899729E-2,1.904740036E-1
9.832021131E0,3.517499939E-2,8.992400020E-2,1.834380031E-1
9.846027939E0,3.517499939E-2,8.992400020E-2,1.834380031E-1
9.860035482E0,-2.276000101E-3,6.460700184E-2,1.713899970E-1
9.874042338E0,2.985000052E-2,6.186000071E-3,1.473219991E-1
9.888048353E0,4.496499896E-2,2.210599929E-2,1.643359959E-1
9.902055218E0,4.496499896E-2,2.210599929E-2,1.643359959E-1
9.916062766E0,4.298799857E-2,-1.826299913E-2,2.056190073E-1
9.930069589E0,-1.264899969E-2,2.483299933E-2,2.176209986E-1
9.944075593E0,-1.264899969E-2,2.483299933E-2,2.176209986E-1
9.958082430E0,3.140999936E-3,1.830700040E-2,2.245240062E-1
9.972089992E0,3.132300079E-2,8.245999925E-3,1.424420029E-1
9.986096881E0,3.132300079E-2,8.245999925E-3,1.424420029E-1
1.000010290E1,5.369999912E-3,6.635399908E-2,2.195210010E-1
1.001410976E1,-2.607000060E-3,3.270399943E-2,2.365390062E-1
1.002811734E1,4.004799947E-2,6.663000211E-3,2.415039986E-1
1.004212411E1,4.004799947E-2,6.663000211E-3,2.415039986E-1
1.005613021E1,4.711500183E-2,3.352500126E-2,2.364410013E-1
1.007013706E1,3.300499916E-2,9.131199867E-2,1.784400046E-1
1.008414458E1,3.300499916E-2,9.131199867E-2,1.784400046E-1
1.009815131E1,3.148100153E-2,8.797299862E-2,1.664559990E-1
1.011215735E1,5.338000134E-3,2.533400059E-2,1.403989941E-1
1.012616419E1,5.338000134E-3,2.533400059E-2,1.403989941E-1
1.014017173E1,-3.346600011E-2,-3.799000056E-3,1.333200037E-1
1.015417848E1,-9.108000435E-3,4.066200182E-2,1.542609930E-1
1.016818455E1,4.968599975E-2,3.313000128E-2,1.852319986E-1
1.018219133E1,4.968599975E-2,3.313000128E-2,1.852319986E-1
1.019619894E1,3.643799946E-2,7.596000098E-3,1.211920008E-1
1.021020569E1,3.553399816E-2,1.375200041E-2,1.692759991E-1
1.022421177E1,3.553399816E-2,1.375200041E-2,1.692759991E-1
1.023821849E1,-2.547000069E-3,-1.216999954E-3,2.073010057E-1
1.025222609E1,-2.840100043E-2,-4.253000021E-2,2.501640022E-1
1.026623284E1,-2.840100043E-2,-4.253000021E-2,2.501640022E-1
1.028023888E1,2.168699913E-2,9.204900265E-2,1.261769980E-1
1.029424564E1,8.675800264E-2,1.213139966E-1,2.335390002E-1
1.030825326E1,4.381000064E-3,-8.623999543E-3,2.625199854E-1
1.032226004E1,4.381000064E-3,-8.623999543E-3,2.625199854E-1
1.033626612E1,-1.062799990E-2,-4.136800021E-2,2.724100053E-1
1.035027289E1,-9.530999698E-3,3.785400093E-2,3.846209943E-1
1.036428045E1,-9.530999698E-3,3.785400093E-2,3.846209943E-1
1.037828728E1,1.669500023E-2,8.222699910E-2,1.575309932E-1
1.039229330E1,7.703699917E-2,3.519399837E-2,-6.053600088E-2
1.040630013E1,7.703699917E-2,3.519399837E-2,-6.053600088E-2
1.042030766E1,9.194800258E-2,1.158900000E-2,1.115410030E-1
1.043431449E1,-5.540000275E-4,4.284499958E-2,2.074970007E-1
1.044832051E1,-2.082600072E-2,6.088199839E-2,2.094260007E-1
1.046232737E1,-2.082600072E-2,6.088199839E-2,2.094260007E-1
1.047633492E1,3.853699937E-2,8.279900253E-2,1.933770031E-1
1.049034171E1,3.267600015E-2,2.410499938E-2,1.283610016E-1
1.050434783E1,3.267600015E-2,2.410499938E-2,1.283610016E-1
1.051835478E1,1.218999969E-3,-4.503000062E-3,1.353210062E-1
1.053236232E1,2.662900090E-2,9.027999826E-3,1.813209951E-1
1.054636911E1,2.662900090E-2,9.027999826E-3,1.813209951E-1
1.056037517E1,3.934799880E-2,1.895700023E-2,2.075839937E-1
1.057438188E1,-1.350800041E-2,1.983899996E-2,1.906709969E-1
1.058838949E1,1.592399925E-2,2.596900053E-2,2.456520051E-1
1.060239624E1,1.592399925E-2,2.596900053E-2,2.456520051E-1
1.061640233E1,3.528499976E-2,4.554700106E-2,1.545979977E-1
1.063040913E1,4.888699949E-2,7.173699886E-2,1.937019974E-1
1.064441670E1,4.888699949E-2,7.173699886E-2,1.937019974E-1
1.065842355E1,3.768900037E-2,3.951499984E-2,1.187480018E-1
1.067242963E1,1.248599961E-2,2.214699984E-2,7.872299850E-2
1.068643639E1,1.248599961E-2,2.214699984E-2,7.872299850E-2
1.070044389E1,6.735099852E-2,1.169210002E-1,2.096720040E-1
1.071445074E1,3.475999925E-3,9.141500294E-2,2.486539930E-1
1.072845674E1,-5.736299977E-2,3.082099929E-2,2.336629927E-1
1.074246356E1,-5.736299977E-2,3.082099929E-2,2.336629927E-1
1.075647112E1,-1.567699946E-2,-4.659900069E-2,2.096019983E-1
1.077047792E1,3.051899932E-2,-8.587100357E-2,2.215780020E-1
1.078448390E1,3.051899932E-2,-8.587100357E-2,2.215780020E-1
1.079849075E1,2.920399979E-2,-2.576700039E-2,2.096139938E-1
1.081249830E1,-2.512500063E-2,4.660199955E-2,1.956419945E-1
1.082650505E1,-2.512500063E-2,4.660199955E-2,1.956419945E-1
1.084051112E1,-1.242200006E-2,9.712100029E-2,5.456100032E-2
1.085451788E1,4.234300181E-2,5.674799904E-2,1.286119968E-1
1.086852552E1,6.567399949E-2,-1.220500004E-2,2.056259960E-1
1.088253228E1,6.567399949E-2,-1.220500004E-2,2.056259960E-1
1.089653839E1,7.609900087E-2,-4.043500125E-2,3.205560148E-1
1.091054518E1,7.693000138E-3,5.062599853E-2,1.854539961E-1
1.092455270E1,7.693000138E-3,5.062599853E-2,1.854539961E-1
1.093855949E1,3.594300151E-2,1.051540002E-1,1.787399948E-1
1.095256549E1,4.029999953E-3,6.785999984E-2,1.817779988E-1
1.096657234E1,4.029999953E-3,6.785999984E-2,1.817779988E-1
1.098057989E1,4.219799861E-2,-3.607900068E-2,2.146950066E-1
1.099458676E1,2.303300053E-2,-2.034500055E-2,4.119510055E-1
1.100859281E1,-7.050000131E-3,-6.450000219E-3,3.950090110E-1
1.102259960E1,-7.050000131E-3,-6.450000219E-3,3.950090110E-1
1.103660723E1,1.165699959E-2,-2.227099985E-2,1.028809994E-1
1.105061400E1,9.204199910E-2,-7.450000267E-4,8.788499981E-2
1.106462005E1,9.204199910E-2,-7.450000267E-4,8.788499981E-2
1.107862683E1,2.749999985E-2,5.122900009E-2,9.481199831E-2
1.109263440E1,-1.727199927E-2,1.157360002E-1,9.975399822E-2
1.110664123E1,-1.727199927E-2,1.157360002E-1,9.975399822E-2
1.112064728E1,1.995999925E-2,1.310700029E-1,2.217749953E-1
1.113465405E1,2.287800051E-2,5.166000128E-2,2.487950027E-1
1.114866161E1,-1.680799946E-2,-2.132399939E-2,2.247480005E-1
1.116266846E1,-1.680799946E-2,-2.132399939E-2,2.247480005E-1
1.117667448E1,-5.656000227E-3,4.399000201E-3,1.406619996E-1
1.119068136E1,4.244299978E-2,1.879999973E-2,1.718840003E-1
1.120468891E1,4.244299978E-2,1.879999973E-2,1.718840003E-1
1.121869565E1,3.007999994E-2,2.346000075E-2,1.650069952E-1
1.123270170E1,1.411699969E-2,2.293699980E-2,1.739889979E-1
1.124670845E1,1.411699969E-2,2.293699980E-2,1.739889979E-1
1.126071609E1,5.522099882E-2,-4.790999927E-3,2.029169947E-1
1.127472288E1,6.396000087E-2,-3.250899911E-2,2.510620058E-1
1.128872895E1,8.066999726E-3,1.311700046E-2,2.580989897E-1
1.130273566E1,8.066999726E-3,1.311700046E-2,2.580989897E-1
1.131674320E1,-1.840900071E-2,5.512199923E-2,1.480129957E-1
1.133075008E1,2.113400027E-2,1.068369970E-1,1.669480056E-1
1.134475606E1,2.113400027E-2,1.068369970E-1,1.669480056E-1
1.135876290E1,4.487400129E-2,8.144199848E-2,1.169250011E-1
1.137277044E1,5.399499834E-2,7.044500113E-2,1.910450011E-1
1.138677717E1,5.399499834E-2,7.044500113E-2,1.910450011E-1
1.140078320E1,4.247099906E-2,7.021999918E-3,2.250519991E-1
1.141478995E1,3.810799867E-2,-4.273000173E-3,2.340050042E-1
1.142879760E1,-1.609300077E-2,3.289899975E-2,2.029660046E-1
1.144280441E1,-1.609300077E-2,3.289899975E-2,2.029660046E-1
1.145681053E1,4.772999790E-3,6.602700055E-2,1.389299929E-1
1.147081729E1,3.047900088E-2,3.385699913E-2,1.118249968E-1
1.148482484E1,3.047900088E-2,3.385699913E-2,1.118249968E-1
1.149883167E1,3.071199916E-2,-1.953200065E-2,1.338309944E-1
1.151283769E1,6.697399914E-2,-3.694700077E-2,3.060010076E-1
1.152684456E1,6.697399914E-2,-3.694700077E-2,3.060010076E-1
1.154085212E1,1.547699980E-2,-1.661499962E-2,3.709590137E-1
1.155485891E1,-3.340300173E-2,4.666199908E-2,2.317669988E-1
1.156886498E1,-1.302400045E-2,1.093880013E-1,-1.900000061E-4
1.158287176E1,-1.302400045E-2,1.093880013E-1,-1.900000061E-4
1.159687938E1,6.387600303E-2,1.632679999E-1,6.406100094E-2
1.161088617E1,2.299599908E-2,-3.469999938E-4,2.219070047E-1
1.162489224E1,2.299599908E-2,-3.469999938E-4,2.219070047E-1
1.163889900E1,3.999299929E-2,-6.452400237E-2,4.000720084E-1
1.165290655E1,-1.193299983E-2,-2.309300005E-2,4.761919975E-1
1.166691338E1,-1.193299983E-2,-2.309300005E-2,4.761919975E-1
1.168091936E1,4.469700158E-2,3.549699858E-2,8.791100234E-2
1.169492619E1,8.377800137E-2,6.506899744E-2,-6.011100113E-2
1.170893368E1,3.695100173E-2,2.594299987E-2,1.594099961E-2
1.172294043E1,3.695100173E-2,2.594299987E-2,1.594099961E-2
1.173694647E1,3.716999898E-3,6.469000131E-3,1.288630068E-1
1.175095318E1,2.234799974E-2,6.601600349E-2,3.128390014E-1
1.176496079E1,2.234799974E-2,6.601600349E-2,3.128390014E-1
1.177896752E1,2.280299924E-2,7.078599930E-2,3.298639953E-1
1.179297364E1,1.295999973E-3,3.581500053E-2,1.548070014E-1
1.180698038E1,1.295999973E-3,3.581500053E-2,1.548070014E-1
1.182098792E1,1.353299990E-2,-1.711999997E-3,8.750000037E-3
1.183499480E1,4.427200183E-2,3.246799856E-2,9.783899784E-2
1.184900081E1,2.944100089E-2,7.413099706E-2,2.460390031E-1
1.186300765E1,2.944100089E-2,7.413099706E-2,2.460390031E-1
1.187701513E1,-1.095699985E-2,1.194200013E-2,2.970390022E-1
1.189102189E1,1.176469997E-1,-2.009899914E-2,1.889310032E-1
1.190502796E1,1.176469997E-1,-2.009899914E-2,1.889310032E-1
1.191903475E1,7.002600282E-2,-2.002100088E-2,1.770060062E-1
1.193304232E1,-2.982399985E-2,5.615700036E-2,2.061029971E-1
1.194704917E1,-2.982399985E-2,5.615700036E-2,2.061029971E-1
1.196105528E1,-2.868999960E-3,7.279899716E-2,1.410530061E-1
1.197506204E1,3.604099900E-2,7.580699772E-2,1.839690059E-1
1.198906963E1,3.350900114E-2,5.002000183E-2,2.459399998E-1
1.200307645E1,3.350900114E-2,5.002000183E-2,2.459399998E-1
1.201708248E1,-9.626000188E-3,2.766500041E-2,2.390249968E-1
1.203108931E1,3.866099939E-2,6.299999950E-5,2.300930023E-1
1.204509686E1,3.866099939E-2,6.299999950E-5,2.300930023E-1
1.205910366E1,3.296900168E-2,2.039900050E-2,1.960050017E-1
1.207310974E1,-6.974000018E-3,4.213799909E-2,1.629420072E-1
1.208711654E1,-6.974000018E-3,4.213799909E-2,1.629420072E-1
1.210112417E1,-2.075500041E-2,3.704699874E-2,1.698839962E-1
1.211513099E1,4.440199956E-2,4.409300163E-2,1.908240020E-1
1.212913701E1,4.208600149E-2,1.292600017E-2,2.007520050E-1
1.214314384E1,4.208600149E-2,1.292600017E-2,2.007520050E-1
1.215715138E1,-2.689999994E-3,7.182000205E-3,1.626960039E-1
1.217115820E1,2.502599917E-2,2.588099986E-2,1.958100051E-1
1.218516424E1,2.502599917E-2,2.588099986E-2,1.958100051E-1
1.219917105E1,2.353500016E-2,5.322200060E-2,2.388270050E-1
1.221317856E1,5.410999991E-3,2.722000005E-3,2.696369886E-1
1.222718534E1,1.685399935E-2,7.687400281E-2,8.055800200E-2
1.224119140E1,1.685399935E-2,7.687400281E-2,8.055800200E-2
1.225519816E1,4.958999902E-2,1.280079931E-1,1.508910060E-1
1.226920572E1,-2.888699993E-2,5.927999970E-3,2.078450024E-1
1.228321249E1,-2.888699993E-2,5.927999970E-3,2.078450024E-1
1.229721849E1,8.519999683E-3,-5.313999951E-2,2.968890071E-1
1.231122528E1,-2.610399947E-2,7.699999696E-5,4.640040100E-1
1.232523277E1,-2.610399947E-2,7.699999696E-5,4.640040100E-1
1.233923964E1,-1.104999986E-2,4.724900052E-2,2.627759874E-1
1.235324568E1,2.374999970E-2,1.821799949E-2,-3.632200137E-2
1.236725243E1,4.272599891E-2,1.856100000E-2,6.748000160E-3
1.238126005E1,4.272599891E-2,1.856100000E-2,6.748000160E-3
1.239526678E1,4.749900103E-2,5.251000077E-2,1.596679986E-1
1.240927286E1,2.914899960E-2,8.695600182E-2,2.866219878E-1
1.242327964E1,2.914899960E-2,8.695600182E-2,2.866219878E-1
1.243728719E1,3.077800013E-2,5.193899944E-2,2.746169865E-1
1.245129403E1,-4.558800161E-2,5.707599968E-2,1.065609977E-1
1.246530001E1,-4.558800161E-2,5.707599968E-2,1.065609977E-1
1.247930689E1,1.155200042E-2,4.313800111E-2,4.453400150E-2
1.249331444E1,6.792099774E-2,1.508700009E-2,1.235570014E-1
1.250732129E1,5.085700005E-2,1.380500011E-2,2.727580070E-1
1.252132732E1,5.085700005E-2,1.380500011E-2,2.727580070E-1
1.253533409E1,-2.063100040E-2,1.419700030E-2,2.917580009E-1
1.254934176E1,-9.235000238E-3,-3.610000131E-4,2.006800026E-1
1.256334850E1,-9.235000238E-3,-3.610000131E-4,2.006800026E-1
1.257735459E1,2.458599955E-2,2.315700054E-2,1.236750036E-1
1.259136140E1,3.942000214E-3,5.371699855E-2,2.317730039E-1
1.260536895E1,3.942000214E-3,5.371699855E-2,2.317730039E-1
1.261937581E1,-2.018900029E-2,4.385200143E-2,1.977639943E-1
1.263338183E1,3.922999837E-3,5.258699879E-2,1.646980047E-1
1.264738865E1,3.342099860E-2,6.912799925E-2,1.716440022E-1
1.266139621E1,3.342099860E-2,6.912799925E-2,1.716440022E-1
1.267540300E1,4.106799886E-2,8.314099908E-2,1.887820065E-1
1.268940904E1,5.811899900E-2,3.203300014E-2,2.368759960E-1
1.270341580E1,5.811899900E-2,3.203300014E-2,2.368759960E-1
1.271742340E1,3.090400063E-2,1.136900019E-2,2.368369997E-1
1.273143016E1,-2.132700011E-2,5.212999880E-3,2.007990032E-1
1.274543621E1,-2.132700011E-2,5.212999880E-3,2.007990032E-1
1.275944287E1,-2.372699976E-2,6.023800001E-2,1.817249954E-1
1.277345043E1,-1.280999975E-3,5.616800115E-2,1.526760012E-1
1.278745726E1,3.757900000E-2,2.766199969E-2,1.886720061E-1
1.280146326E1,3.757900000E-2,2.766199969E-2,1.886720061E-1
1.281547014E1,3.140199929E-2,6.635999773E-3,1.715739965E-1
1.282947766E1,4.753499851E-2,4.219200090E-2,1.936099976E-1
1.284348436E1,4.753499851E-2,4.219200090E-2,1.936099976E-1
1.285749045E1,3.843399882E-2,5.377700180E-2,2.506409883E-1
1.287149723E1,1.360700000E-2,3.408199921E-2,2.674730122E-1
1.288550483E1,1.360700000E-2,3.408199921E-2,2.674730122E-1
1.289951162E1,4.976999946E-3,4.890000075E-2,1.472679973E-1
1.291351765E1,4.974999931E-3,1.090169996E-1,1.141100004E-2
1.292752448E1,3.349599987E-2,1.071309969E-1,9.254600108E-2
1.294153188E1,3.349599987E-2,1.071309969E-1,9.254600108E-2
1.295553870E1,1.447500009E-2,2.399500087E-2,2.963350117E-1
1.296954470E1,1.674900018E-2,-3.746100143E-2,5.354940295E-1
1.298355158E1,1.674900018E-2,-3.746100143E-2,5.354940295E-1
1.299755911E1,-3.890300170E-2,-7.895100117E-2,4.874899983E-1
1.301156589E1,-2.066799998E-2,-2.377600037E-2,-6.081900001E-2
1.302557194E1,-2.066799998E-2,-2.377600037E-2,-6.081900001E-2
1.303957874E1,8.602699637E-2,5.631799996E-2,-1.308249980E-1
1.305358632E1,3.581200168E-2,9.340299666E-2,1.231629997E-1
1.306759308E1,-1.823299937E-2,6.005600095E-2,2.380450070E-1
1.308159918E1,-1.823299937E-2,6.005600095E-2,2.380450070E-1
1.309560596E1,2.712099999E-2,7.535400242E-2,2.909219861E-1
1.310961349E1,5.603099987E-2,5.815099925E-2,2.668190002E-1
1.312362037E1,5.603099987E-2,5.815099925E-2,2.668190002E-1
1.313762633E1,3.745099902E-2,5.158700049E-2,1.897079945E-1
1.315163332E1,1.309600007E-2,2.394800074E-2,8.256799728E-2
1.316564094E1,1.309600007E-2,2.394800074E-2,8.256799728E-2
1.317964771E1,1.889399998E-2,2.773899958E-2,1.515849978E-1
1.319365378E1,1.015799958E-2,3.563199937E-2,2.166139930E-1
1.320766055E1,-2.654800005E-2,2.234400064E-2,2.304710001E-1
1.322166818E1,-2.654800005E-2,2.234400064E-2,2.304710001E-1
1.323567493E1,3.425199911E-2,-1.881000027E-2,1.943400055E-1
1.324968103E1,5.511000007E-2,-1.819700003E-2,1.873379946E-1
1.326368779E1,5.511000007E-2,-1.819700003E-2,1.873379946E-1
1.327769533E1,1.194600016E-2,2.130899951E-2,1.533820033E-1
1.329170220E1,-3.754400089E-2,6.010000035E-2,1.393139958E-1
1.330570815E1,-3.754400089E-2,6.010000035E-2,1.393139958E-1
1.331971498E1,2.645999892E-3,4.856200144E-2,1.611779928E-1
1.333372250E1,3.664400056E-2,4.146400094E-2,1.631110013E-1
1.334772932E1,4.330000083E-4,4.282199964E-2,2.401459962E-1
1.336173535E1,4.330000083E-4,4.282199964E-2,2.401459962E-1
1.337574215E1,2.861999907E-3,1.117500011E-2,1.441120058E-1
1.338974970E1,4.393099993E-2,3.859800100E-2,7.403200120E-2
1.340375648E1,4.393099993E-2,3.859800100E-2,7.403200120E-2
1.341776255E1,4.314599931E-2,4.245299846E-2,9.099099785E-2
1.343176931E1,3.400700167E-2,5.770000070E-2,1.319269985E-1
1.344577693E1,3.400700167E-2,5.770000070E-2,1.319269985E-1
1.345978370E1,3.515399992E-2,2.822300047E-2,1.648540050E-1
1.347378970E1,2.187900059E-2,1.102999970E-2,1.867990047E-1
1.348779652E1,8.413000032E-3,-1.366300043E-2,1.677500010E-1
1.350180403E1,8.413000032E-3,-1.366300043E-2,1.677500010E-1
1.351581090E1,-2.098499984E-2,1.442600042E-2,1.147139966E-1
1.352981690E1,6.519000046E-3,2.600600012E-2,1.957840025E-1
1.354382376E1,6.519000046E-3,2.600600012E-2,1.957840025E-1
1.355783132E1,5.050100014E-2,3.930599988E-2,2.228569984E-1
1.357183804E1,3.124799952E-2,3.076999914E-3,2.778640091E-1
1.358584410E1,3.124799952E-2,3.076999914E-3,2.778640091E-1
1.359985088E1,-1.622099988E-2,3.759000078E-2,1.720079929E-1
1.361385844E1,1.370599959E-2,8.097399771E-2,1.682389975E-1
1.362786520E1,1.326999976E-3,4.046300054E-2,2.132820040E-1
1.364187121E1,1.326999976E-3,4.046300054E-2,2.132820040E-1
1.365587806E1,2.720900066E-2,-5.559000187E-3,2.043209970E-1
1.366988561E1,3.164099902E-2,1.535299979E-2,2.756229937E-1
1.368389247E1,3.164099902E-2,1.535299979E-2,2.756229937E-1
1.369789849E1,-1.067600027E-2,1.250999980E-3,2.427230030E-1
1.371190534E1,-1.334699988E-2,1.333899982E-2,7.476100326E-2
1.372591288E1,-1.334699988E-2,1.333899982E-2,7.476100326E-2
1.373991968E1,6.087100133E-2,2.120199986E-2,1.449269950E-1
1.375392576E1,3.436300159E-2,2.435499988E-2,2.190250009E-1
1.376793252E1,3.221999854E-2,3.594300151E-2,2.811250091E-1
1.378194008E1,3.221999854E-2,3.594300151E-2,2.811250091E-1
1.379594693E1,-9.472999722E-3,2.990500070E-2,2.052250057E-1
1.380995293E1,1.101399958E-2,6.061600149E-2,1.732800007E-1
1.382395981E1,1.101399958E-2,6.061600149E-2,1.732800007E-1
1.383796739E1,1.029399969E-2,5.266999826E-2,1.883479953E-1
1.385197424E1,-3.031000029E-3,-2.464999910E-3,2.454359978E-1
1.386598025E1,-3.031000029E-3,-2.464999910E-3,2.454359978E-1
1.387998700E1,1.637100056E-2,-2.403200045E-2,3.326719999E-1
1.389399465E1,-1.872999943E-3,1.411699969E-2,2.216179967E-1
1.390800140E1,2.422500029E-2,3.564099967E-2,1.814689934E-1
1.392200746E1,2.422500029E-2,3.564099967E-2,1.814689934E-1
1.393601421E1,3.499900177E-2,1.022099983E-2,1.834110022E-1
1.395002176E1,7.919000462E-3,1.582000032E-2,2.674530149E-1
1.396402860E1,7.919000462E-3,1.582000032E-2,2.674530149E-1
1.397803462E1,9.056000039E-3,2.337899990E-2,2.314790040E-1
1.399204146E1,4.182000179E-3,2.528499998E-2,2.143879980E-1
1.400604901E1,4.182000179E-3,2.528499998E-2,2.143879980E-1
1.402005588E1,4.484200105E-2,3.843199834E-2,1.832569987E-1
1.403406183E1,1.039300021E-2,3.305700049E-2,2.072129995E-1
1.404806859E1,7.549999864E-4,2.182799950E-2,2.312120050E-1
1.406207623E1,7.549999864E-4,2.182799950E-2,2.312120050E-1
1.407608303E1,4.798000213E-3,-4.679000005E-3,2.120099962E-1
1.409008911E1,3.391100094E-2,1.721099950E-2,1.658779979E-1
1.410409592E1,3.391100094E-2,1.721099950E-2,1.658779979E-1
1.411810343E1,3.835700080E-2,3.847699985E-2,1.877939999E-1
1.413211029E1,2.234099992E-2,4.087899998E-2,2.066680044E-1
1.414611615E1,2.234099992E-2,4.087899998E-2,2.066680044E-1
1.416012294E1,1.565100066E-2,2.218299918E-2,1.874720007E-1
1.417413053E1,7.925000042E-3,6.450000219E-3,1.703090072E-1
1.418813724E1,6.767000072E-3,4.920999985E-3,1.340930015E-1
1.420214332E1,6.767000072E-3,4.920999985E-3,1.340930015E-1
1.421615005E1,5.448799953E-2,3.770000115E-2,1.720830053E-1
1.423015766E1,3.508200124E-2,5.178099871E-2,2.200700045E-1
1.424416438E1,3.508200124E-2,5.178099871E-2,2.200700045E-1
1.425817048E1,5.257999990E-3,1.643400081E-2,2.419240028E-1
1.427217722E1,-1.196500007E-2,3.447499871E-2,2.507950068E-1
1.428618475E1,-1.196500007E-2,3.447499871E-2,2.507950068E-1
1.430019158E1,5.828699842E-2,8.354599774E-2,1.699420065E-1
1.431419753E1,7.131000049E-3,7.300999947E-3,1.839130074E-1
1.432820440E1,1.972999889E-3,-9.646999650E-3,2.128220052E-1
1.434221191E1,1.972999889E-3,-9.646999650E-3,2.128220052E-1
1.435621868E1,5.576200038E-2,1.272400003E-2,3.070909977E-1
1.437022492E1,1.135899965E-2,2.596399933E-2,3.571049869E-1
1.438423173E1,1.135899965E-2,2.596399933E-2,3.571049869E-1
1.439823927E1,-4.348399863E-2,4.315299913E-2,9.098099917E-2
1.441224613E1,5.849299952E-2,3.418999910E-2,2.050000010E-3
1.442625217E1,5.849299952E-2,3.418999910E-2,2.050000010E-3
1.444025903E1,7.202100009E-2,4.285699874E-2,1.390710026E-1
1.445426661E1,2.079300024E-2,7.150100172E-2,1.940920055E-1
1.446827345E1,1.918200031E-2,5.189799890E-2,2.231850028E-1
1.448227947E1,1.918200031E-2,5.189799890E-2,2.231850028E-1
1.449628627E1,7.850999944E-3,4.999500141E-2,2.132229954E-1
1.451029386E1,5.220999941E-3,4.830399901E-2,1.442410052E-1
1.452430063E1,5.220999941E-3,4.830399901E-2,1.442410052E-1
1.453830671E1,3.721899912E-2,2.404999919E-2,9.126500040E-2
1.455231353E1,3.524700180E-2,4.351799935E-2,1.683820039E-1
1.456632108E1,3.524700180E-2,4.351799935E-2,1.683820039E-1
1.458032795E1,3.466000082E-3,3.151300177E-2,2.424000055E-1
1.459433392E1,-6.879999768E-3,1.807899959E-2,2.594070137E-1
1.460834077E1,2.618099935E-2,-1.311799977E-2,2.044979930E-1
1.462234830E1,2.618099935E-2,-1.311799977E-2,2.044979930E-1
1.463635502E1,2.993199974E-2,7.296999916E-3,1.997189969E-1
1.465036110E1,-3.191000083E-3,5.600399897E-2,1.948080063E-1
1.466436788E1,-3.191000083E-3,5.600399897E-2,1.948080063E-1
1.467837548E1,1.719999942E-3,8.729500324E-2,1.898310035E-1
1.469238222E1,1.343300007E-2,7.672300190E-2,1.468549967E-1
1.470638817E1,1.343300007E-2,7.672300190E-2,1.468549967E-1
1.472039504E1,1.097899955E-2,5.905799940E-2,8.489199728E-2
1.473440257E1,1.453099959E-2,7.327599823E-2,1.499149948E-1
1.474840934E1,2.632500045E-2,2.613499947E-2,2.478920072E-1
1.476241540E1,2.632500045E-2,2.613499947E-2,2.478920072E-1
1.477642215E1,1.911400072E-2,2.752299979E-2,2.188729942E-1
1.479042970E1,1.648399979E-2,1.161199994E-2,1.809609979E-1
1.480443649E1,1.648399979E-2,1.161199994E-2,1.809609979E-1
1.481844257E1,3.746199980E-2,1.672100089E-2,1.160219982E-1
1.483244939E1,3.221200034E-2,1.930500008E-2,6.597200036E-2
1.484645696E1,3.221200034E-2,1.930500008E-2,6.597200036E-2
1.486046380E1,2.253800072E-2,4.388099909E-2,2.429150045E-1
1.487446980E1,6.099999882E-3,8.654999547E-3,3.117839992E-1
1.488847663E1,-1.673199981E-2,1.652199961E-2,2.017329931E-1
1.490248417E1,-1.673199981E-2,1.652199961E-2,2.017329931E-1
1.491649094E1,3.410900012E-2,5.641699955E-2,2.989500016E-2
1.493049703E1,7.017599791E-2,9.117399901E-2,1.211140007E-1
1.494450376E1,7.017599791E-2,9.117399901E-2,1.211140007E-1
1.495851131E1,-3.329899907E-2,2.290299907E-2,1.710660011E-1
1.497251816E1,2.389900014E-2,5.681999959E-3,2.211100012E-1
1.498652416E1,2.389900014E-2,5.681999959E-3,2.211100012E-1
1.500053103E1,4.257000051E-3,3.193400055E-2,3.431969881E-1
1.501453854E1,-1.633699983E-2,3.382600099E-2,9.713300318E-2
1.502854534E1,4.405999929E-2,1.730100065E-2,1.116999984E-2
1.504255140E1,4.405999929E-2,1.730100065E-2,1.116999984E-2
1.505655819E1,6.366900355E-2,3.304700181E-2,1.232070029E-1
1.507056571E1,9.471000172E-3,5.819899961E-2,1.500789970E-1
1.508457258E1,9.471000172E-3,5.819899961E-2,1.500789970E-1
1.509857861E1,-6.331000011E-3,5.084399879E-2,2.049500048E-1
1.511258551E1,1.673500054E-2,5.015499890E-2,1.998479962E-1
1.512659305E1,1.673500054E-2,5.015499890E-2,1.998479962E-1
1.514059983E1,-7.799999730E-5,5.423599854E-2,1.516949981E-1
1.515460592E1,1.607500017E-2,8.089700341E-2,1.175199971E-1
1.516861268E1,1.785299927E-2,2.499200031E-2,1.533959955E-1
1.518262030E1,1.785299927E-2,2.499200031E-2,1.533959955E-1
1.519662709E1,7.040000055E-4,-3.573999973E-3,1.343809962E-1
1.521063309E1,3.165199980E-2,-3.039000090E-3,1.822029948E-1
1.522463995E1,3.165199980E-2,-3.039000090E-3,1.822029948E-1
1.523864742E1,5.660999939E-2,3.765499964E-2,2.800559998E-1
1.525265426E1,5.409900099E-2,2.720800042E-2,2.900339961E-1
1.526666022E1,5.409900099E-2,2.720800042E-2,2.900339961E-1
1.528066703E1,-1.183300000E-2,5.303000100E-3,2.710210085E-1
1.529467462E1,-7.996799797E-2,1.365699992E-2,1.319199950E-1
1.530868141E1,-4.398500174E-2,2.779899910E-2,1.218150035E-1
1.532268744E1,-4.398500174E-2,2.779899910E-2,1.218150035E-1
1.533669421E1,5.006999895E-2,2.978299931E-2,9.771399945E-2
1.535070173E1,9.759800136E-2,8.505199850E-2,1.558150053E-1
1.536470859E1,9.759800136E-2,8.505199850E-2,1.558150053E-1
1.537871460E1,6.854300201E-2,6.776899844E-2,2.178750038E-1
1.539272149E1,-3.660399839E-2,5.344599858E-2,2.318020016E-1
1.540672901E1,-3.660399839E-2,5.344599858E-2,2.318020016E-1
1.542073577E1,-2.223500051E-2,4.482199997E-2,1.937139928E-1
1.543474176E1,3.167099878E-2,-9.824000299E-3,1.986369938E-1
1.544874863E1,1.189900003E-2,-2.699499950E-2,1.626150012E-1
1.546275622E1,1.189900003E-2,-2.699499950E-2,1.626150012E-1
1.547676298E1,5.755100027E-2,-1.863999991E-3,2.057469934E-1
1.549076907E1,5.710500106E-2,-3.507999936E-3,2.918440104E-1
1.550477582E1,5.710500106E-2,-3.507999936E-3,2.918440104E-1
1.551878342E1,-1.517499983E-2,2.320099995E-2,2.227900028E-1
1.553279019E1,2.212000079E-3,6.740800291E-2,6.196900085E-2
1.554679619E1,2.212000079E-3,6.740800291E-2,6.196900085E-2
1.556080305E1,-3.892000066E-3,5.333499983E-2,2.182459980E-1
1.557481056E1,-2.308999887E-3,-1.602100022E-2,2.561579943E-1
1.558881731E1,1.884200051E-2,-2.880199999E-2,2.902109921E-1
1.560282333E1,1.884200051E-2,-2.880199999E-2,2.902109921E-1
1.561683010E1,2.519599907E-2,2.083400078E-2,3.663760126E-1
1.563083765E1,3.187299892E-2,6.221599877E-2,1.992370039E-1
1.564484449E1,3.187299892E-2,6.221599877E-2,1.992370039E-1
1.565885050E1,4.888899997E-2,3.809399903E-2,1.423900016E-2
1.567285732E1,7.184900343E-2,2.808400057E-2,1.083400026E-1
1.568686483E1,7.184900343E-2,2.808400057E-2,1.083400026E-1
1.570087163E1,1.492999960E-3,2.460199967E-2,1.703040004E-1
1.571487774E1,-2.642600052E-2,4.879900068E-2,2.013330013E-1
1.572888449E1,4.094399884E-2,5.257900059E-2,2.043969929E-1
1.574289202E1,4.094399884E-2,5.257900059E-2,2.043969929E-1
1.575689884E1,2.547699958E-2,4.995600134E-2,1.824409962E-1
1.577090483E1,-1.032099966E-2,9.998000227E-3,1.805099994E-1
1.578491152E1,-1.032099966E-2,9.998000227E-3,1.805099994E-1
1.579891909E1,-1.691100001E-2,-8.307999931E-3,1.756680012E-1
1.581292588E1,-1.237799972E-2,1.645500027E-2,1.998919994E-1
1.582693186E1,-1.237799972E-2,1.645500027E-2,1.998919994E-1
1.584093875E1,5.863000173E-3,1.167699974E-2,1.779589951E-1
1.585494631E1,3.204900026E-2,2.174099907E-2,1.779859960E-1
1.586895307E1,7.018099725E-2,2.643300034E-2,2.091249973E-1
1.588295913E1,7.018099725E-2,2.643300034E-2,2.091249973E-1
1.589696594E1,2.422099933E-2,4.675300047E-2,2.722640038E-1
1.591097354E1,-1.496499963E-2,4.579700157E-2,1.933510005E-1
1.592498032E1,-1.496499963E-2,4.579700157E-2,1.933510005E-1
1.593898631E1,1.772899926E-2,4.320399836E-2,1.404410005E-1
1.595299316E1,2.061700076E-2,4.901399836E-2,1.285890043E-1
1.596700073E1,2.061700076E-2,4.901399836E-2,1.285890043E-1
1.598100753E1,1.026200037E-2,6.804700196E-2,1.939480007E-1
1.599501372E1,-4.976000171E-3,6.007700041E-2,2.340759933E-1
1.600902055E1,-2.582200058E-2,3.207499906E-2,1.980780065E-1
1.602302809E1,-2.582200058E-2,3.207499906E-2,1.980780065E-1
1.603703492E1,2.476100065E-2,6.684000138E-3,1.892170012E-1
1.605104093E1,2.418199927E-2,1.044899970E-2,1.982630044E-1
1.606504763E1,2.418199927E-2,1.044899970E-2,1.982630044E-1
1.607905519E1,2.833999926E-3,2.292300016E-2,1.432539970E-1
1.609306197E1,2.988499962E-2,3.981100023E-2,1.654449999E-1
1.610706795E1,2.988499962E-2,3.981100023E-2,1.654449999E-1
1.612107483E1,2.021400072E-2,1.373999985E-3,2.467000037E-1
1.613508232E1,6.200000178E-3,-2.400800027E-2,2.566600144E-1
1.614908909E1,2.756999992E-2,4.026700184E-2,1.128169969E-1
1.616309517E1,2.756999992E-2,4.026700184E-2,1.128169969E-1
1.617710188E1,3.258299828E-2,8.823599666E-2,1.301040053E-1
1.619110942E1,8.879999630E-3,4.241099954E-2,2.309450060E-1
1.620511626E1,8.879999630E-3,4.241099954E-2,2.309450060E-1
1.621912227E1,2.106199972E-2,1.404999988E-3,2.520149946E-1
1.623312907E1,1.385900006E-2,6.827000063E-3,3.672699928E-1
1.624713671E1,-2.369599976E-2,1.665000059E-2,2.431879938E-1
1.626114349E1,-2.369599976E-2,1.665000059E-2,2.431879938E-1
1.627514958E1,4.941900074E-2,-9.154000320E-3,8.210799843E-2
1.628915637E1,5.157800019E-2,4.538099840E-2,9.413299710E-2
1.630316392E1,5.157800019E-2,4.538099840E-2,9.413299710E-2
1.631717069E1,1.504999958E-2,6.990399957E-2,1.611649990E-1
1.633117677E1,1.946499944E-2,6.729900092E-2,2.023729980E-1
1.634518349E1,1.946499944E-2,6.729900092E-2,2.023729980E-1
1.635919103E1,1.537699997E-2,5.430399999E-2,2.165289968E-1
1.637319788E1,1.495999983E-3,3.010099940E-2,1.955900043E-1
1.638720391E1,6.415999960E-3,4.374200106E-2,1.665930003E-1
1.640121075E1,6.415999960E-3,4.374200106E-2,1.665930003E-1
1.641521825E1,3.188600019E-2,6.876999978E-3,1.879079938E-1
1.642922498E1,2.885499969E-2,2.010000026E-4,1.961320043E-1
1.644323103E1,2.885499969E-2,2.010000026E-4,1.961320043E-1
1.645723778E1,1.682999916E-2,-4.610999953E-3,1.672559977E-1
1.647124531E1,3.378799930E-2,8.808000013E-3,2.003699988E-1
1.648525206E1,3.378799930E-2,8.808000013E-3,2.003699988E-1
1.649925817E1,1.944199950E-2,3.083500080E-2,2.295179963E-1
1.651326494E1,-6.285999902E-3,4.404100031E-2,2.396910042E-1
1.652727248E1,-4.949000198E-3,5.118599907E-2,1.968369931E-1
1.654127931E1,-4.949000198E-3,5.118599907E-2,1.968369931E-1
1.655528530E1,4.356899858E-2,3.831699863E-2,2.090470046E-1
1.656929217E1,4.509900138E-2,2.398700081E-2,1.941960007E-1
1.658329974E1,4.509900138E-2,2.398700081E-2,1.941960007E-1
1.659730654E1,5.418299884E-2,2.187599987E-2,1.853719950E-1
1.661131259E1,1.676600054E-2,3.278899938E-2,2.014759928E-1
1.662531946E1,1.676600054E-2,3.278899938E-2,2.014759928E-1
1.663932707E1,8.759000339E-3,1.088399999E-2,2.134860009E-1
1.665333390E1,7.149999961E-3,4.177699983E-2,2.234700024E-1
1.666733999E1,2.673799917E-2,2.120500058E-2,2.164520025E-1
1.668134676E1,2.673799917E-2,2.120500058E-2,2.164520025E-1
1.669535433E1,4.424799979E-2,9.742000140E-3,1.923059970E-1
1.670936115E1,4.865299910E-2,-1.502799988E-2,1.272879988E-1
1.672336716E1,4.865299910E-2,-1.502799988E-2,1.272879988E-1
1.673737391E1,1.102599967E-2,-2.751299925E-2,2.165080011E-1
1.675138154E1,3.466000082E-3,-6.047999952E-3,3.046619892E-1
1.676538832E1,3.466000082E-3,-6.047999952E-3,3.046619892E-1
1.677939432E1,-1.884599961E-2,4.316300154E-2,3.524590135E-1
1.679340105E1,-4.357099906E-2,7.793500274E-2,1.462450027E-1
1.680740856E1,3.901999816E-2,9.147900343E-2,1.441829950E-1
1.682141528E1,3.901999816E-2,9.147900343E-2,1.441829950E-1
1.683542135E1,2.305199951E-2,9.630000219E-3,2.365670055E-1
1.684942811E1,3.070200048E-2,-3.868300095E-2,2.344059944E-1
1.686343568E1,3.070200048E-2,-3.868300095E-2,2.344059944E-1
1.687744240E1,7.581999991E-3,1.222999999E-3,3.974550068E-1
1.689144848E1,-6.395000033E-3,2.062599920E-2,2.338609993E-1
1.690545526E1,-6.395000033E-3,2.062599920E-2,2.338609993E-1
1.691946280E1,5.069100112E-2,-1.000000047E-3,9.443099797E-2
1.693346966E1,5.785200000E-2,4.732999951E-3,1.181090027E-1
1.694747568E1,-1.570899971E-2,6.645900011E-2,1.298059970E-1
1.696148245E1,-1.570899971E-2,6.645900011E-2,1.298059970E-1
1.697549008E1,2.131200023E-2,8.497700095E-2,1.796119958E-1
1.698949686E1,3.361000121E-2,4.819799960E-2,2.085320055E-1
1.700350292E1,3.361000121E-2,4.819799960E-2,2.085320055E-1
1.701750973E1,5.590299889E-2,2.061099932E-2,2.014070004E-1
1.703151730E1,2.732899971E-2,2.252599970E-2,2.181289941E-1
1.704552403E1,2.732899971E-2,2.252599970E-2,2.181289941E-1
1.705953012E1,8.082999848E-3,1.964000054E-2,2.220489979E-1
1.707353684E1,-3.227600083E-2,3.271400183E-2,2.369920015E-1
1.708754440E1,-6.511899829E-2,-2.499999944E-3,1.767210066E-1
1.710155114E1,-6.511899829E-2,-2.499999944E-3,1.767210066E-1
1.711555723E1,5.504500121E-2,-1.492500026E-2,1.643760055E-1
1.712956402E1,6.410200149E-2,2.078800090E-2,1.782349944E-1
1.714357154E1,6.410200149E-2,2.078800090E-2,1.782349944E-1
1.715757828E1,6.283000112E-3,7.711700350E-2,2.051690072E-1
1.717158437E1,-3.152700141E-2,7.495199889E-2,1.689430028E-1
1.718559114E1,-3.152700141E-2,7.495199889E-2,1.689430028E-1
1.719959868E1,-2.655999968E-3,4.441700131E-2,1.347270012E-1
1.721360557E1,4.400800169E-2,2.920000115E-3,1.035720035E-1
1.722761156E1,5.163099989E-2,5.216699839E-2,1.495849937E-1
1.724161832E1,5.163099989E-2,5.216699839E-2,1.495849937E-1
1.725562596E1,3.631599993E-2,2.781699970E-2,2.515439987E-1
1.726963266E1,-6.527999882E-3,4.171299934E-2,1.943569928E-1
1.728363866E1,-6.527999882E-3,4.171299934E-2,1.943569928E-1
1.729764548E1,-1.957000000E-3,5.159899965E-2,1.632149965E-1
1.731165302E1,2.971399948E-2,3.700099885E-2,2.111099958E-1
1.732565971E1,2.971399948E-2,3.700099885E-2,2.111099958E-1
1.733966574E1,2.365499921E-2,4.052999895E-3,2.059710026E-1
1.735367259E1,-7.625999860E-3,-2.482400090E-2,1.148789972E-1
1.736768013E1,2.218499966E-2,7.215999998E-3,1.699550003E-1
1.738168685E1,2.218499966E-2,7.215999998E-3,1.699550003E-1
1.739569285E1,3.899999894E-3,2.337599918E-2,2.538000047E-1
1.740969976E1,-3.288799897E-2,3.936899826E-2,2.036499977E-1
1.742370728E1,-3.288799897E-2,3.936899826E-2,2.036499977E-1
1.743771401E1,-1.758299954E-2,7.788500190E-2,4.772900045E-2
1.745172012E1,2.036100067E-2,7.413499802E-2,2.399370074E-1
1.746572688E1,2.036100067E-2,7.413499802E-2,2.399370074E-1
1.747973446E1,-1.336599980E-2,1.291999966E-2,2.868260145E-1
1.749374122E1,3.330799937E-2,-3.768699989E-2,2.748819888E-1
1.750774732E1,-2.029000083E-3,2.160000056E-2,3.740079999E-1
1.752175413E1,-2.029000083E-3,2.160000056E-2,3.740079999E-1
1.753576175E1,7.406000048E-3,2.597099915E-2,1.049740016E-1
1.754976852E1,5.621099845E-2,1.889999956E-2,1.408900041E-2
1.756377460E1,5.621099845E-2,1.889999956E-2,1.408900041E-2
1.757778135E1,3.915800154E-2,3.983100131E-2,9.115599841E-2
1.759178893E1,-2.212700062E-2,7.498600334E-2,1.291359961E-1
1.760579572E1,-2.212700062E-2,7.498600334E-2,1.291359961E-1
1.761980177E1,3.025300056E-2,7.425700128E-2,2.472030073E-1
1.763380853E1,4.826400056E-2,4.420499876E-2,2.612380087E-1
1.764781606E1,9.034000337E-3,3.002700023E-2,1.842299998E-1
1.766182283E1,9.034000337E-3,3.002700023E-2,1.842299998E-1
1.767582890E1,-1.685200073E-2,3.297699988E-2,9.817899764E-2
1.768983569E1,1.680899970E-2,3.355199844E-2,1.152250022E-1
1.770384323E1,1.680899970E-2,3.355199844E-2,1.152250022E-1
1.771785008E1,2.311700024E-2,5.401699990E-2,1.562449932E-1
1.773185606E1,-2.777300030E-2,4.695300013E-2,1.461420059E-1
1.774586281E1,-2.777300030E-2,4.695300013E-2,1.461420059E-1
1.775987032E1,-7.714000065E-3,1.694500074E-2,6.210799888E-2
1.777387715E1,3.155399859E-2,2.928300016E-2,9.617400169E-2
1.778788316E1,-1.112900022E-2,6.014500186E-2,2.041990012E-1
1.780188990E1,-1.112900022E-2,6.014500186E-2,2.041990012E-1
1.781589740E1,-3.862899914E-2,7.221399993E-2,2.420160025E-1
1.782990424E1,4.782100022E-2,6.123299897E-2,2.278919965E-1
1.784391025E1,4.782100022E-2,6.123299897E-2,2.278919965E-1
1.785791704E1,3.799699992E-2,4.413999990E-2,1.718669981E-1
1.787192461E1,-4.033000208E-3,6.926999893E-3,1.509229988E-1
1.788593148E1,3.301599994E-2,4.545399919E-2,1.249080002E-1
1.789993751E1,3.301599994E-2,4.545399919E-2,1.249080002E-1
1.791394427E1,1.780099981E-2,5.699700117E-2,1.837899983E-1
1.792795177E1,-1.623800024E-2,3.982999921E-2,2.057420015E-1
1.794195863E1,-1.623800024E-2,3.982999921E-2,2.057420015E-1
1.795596467E1,-3.923400119E-2,2.312999964E-2,1.606629938E-1
1.796997145E1,-1.138000004E-2,2.178000053E-3,7.861500233E-2
1.798397897E1,-1.138000004E-2,2.178000053E-3,7.861500233E-2
1.799798587E1,7.354599983E-2,-4.228999838E-3,1.797389984E-1
1.801199186E1,8.543799818E-2,4.573000129E-3,2.898530066E-1
1.802599866E1,8.543799818E-2,4.573000129E-3,2.898530066E-1
1.804000619E1,-1.756200008E-2,1.159999985E-3,2.677890062E-1
1.805401303E1,-3.092800081E-2,7.996799797E-2,9.792400151E-2
1.806801900E1,2.008599974E-2,1.021770015E-1,1.412460059E-1
1.808202576E1,2.008599974E-2,1.021770015E-1,1.412460059E-1
1.809603330E1,-1.191200037E-2,1.737299934E-2,2.200939953E-1
1.811004016E1,2.426099963E-2,-2.549399994E-2,1.680970043E-1
1.812404614E1,2.426099963E-2,-2.549399994E-2,1.680970043E-1
1.813805291E1,5.323399976E-2,-9.659999982E-3,3.503510058E-1
1.815206045E1,2.986600064E-2,1.480800007E-2,2.854189873E-1
1.816606726E1,2.986600064E-2,1.480800007E-2,2.854189873E-1
1.818007325E1,3.156099841E-2,3.403700143E-2,9.141100198E-2
1.819408002E1,6.404799968E-2,1.354999957E-3,1.084500030E-1
1.820808757E1,1.602699980E-2,3.393600136E-2,1.514510065E-1
1.822209427E1,1.602699980E-2,3.393600136E-2,1.514510065E-1
1.823610037E1,-1.746900007E-2,3.564900160E-2,1.995220035E-1
1.825010712E1,1.040500030E-2,1.720999926E-2,2.426889986E-1
1.826411466E1,1.040500030E-2,1.720999926E-2,2.426889986E-1
1.827812145E1,-1.068300009E-2,6.434000097E-3,2.207790017E-1
1.829212752E1,-2.494399995E-2,3.890699893E-2,1.637829989E-1
1.830613422E1,-2.494399995E-2,3.890699893E-2,1.637829989E-1
1.832014170E1,-6.469000131E-3,2.243600041E-2,1.299269944E-1
1.833414856E1,2.640100010E-2,1.208900008E-2,1.831469983E-1
1.834815460E1,5.270000082E-3,9.576000273E-3,2.052730024E-1
1.836216137E1,5.270000082E-3,9.576000273E-3,2.052730024E-1
1.837616892E1,2.955299988E-2,-1.054599974E-2,2.413109988E-1
1.839017570E1,3.711799905E-2,8.679999970E-3,2.004060000E-1
1.840418181E1,3.711799905E-2,8.679999970E-3,2.004060000E-1
1.841818857E1,2.443899959E-2,4.632399976E-2,2.195560038E-1
1.843219616E1,-1.264800038E-2,6.050699949E-2,1.666769981E-1
1.844620291E1,-1.264800038E-2,6.050699949E-2,1.666769981E-1
1.846020899E1,1.604700089E-2,4.185200110E-2,1.408260018E-1
1.847421573E1,2.519400045E-2,4.437800124E-2,1.069710031E-1
1.848822330E1,3.572399914E-2,3.515300155E-2,1.602409929E-1
1.850223006E1,3.572399914E-2,3.515300155E-2,1.602409929E-1
1.851623611E1,2.313599922E-2,2.136299945E-2,2.255710065E-1
1.853024291E1,1.706299931E-2,-2.760000061E-3,2.017029971E-1
1.854425048E1,1.706299931E-2,-2.760000061E-3,2.017029971E-1
1.855825727E1,1.496499963E-2,1.879700087E-2,1.849150062E-1
1.857226332E1,2.367899939E-2,2.477799915E-2,2.191549987E-1
1.858627006E1,2.367899939E-2,2.477799915E-2,2.191549987E-1
1.860027757E1,2.327799983E-2,4.590899870E-2,1.642089933E-1
1.861428433E1,1.886000042E-3,2.387199923E-2,1.134610027E-1
1.862829039E1,7.158000022E-3,2.549000084E-2,2.169290036E-1
1.864229717E1,7.158000022E-3,2.549000084E-2,2.169290036E-1
1.865630470E1,3.781700134E-2,-2.252399921E-2,3.303560019E-1
1.867031146E1,-3.547900170E-2,1.111099962E-2,2.554300129E-1
1.868431759E1,-3.547900170E-2,1.111099962E-2,2.554300129E-1
1.869832435E1,-5.204100162E-2,7.721000165E-2,1.748110056E-1
1.871233186E1,-3.639199957E-2,7.422199845E-2,2.329200059E-1
1.872633866E1,-3.639199957E-2,7.422199845E-2,2.329200059E-1
1.874034476E1,1.137799956E-2,1.379000023E-3,1.796270013E-1
1.875435149E1,4.393300042E-2,-1.488600019E-2,2.178709954E-1
1.876835903E1,3.801599890E-2,1.655000076E-2,2.641339898E-1
1.878236580E1,3.801599890E-2,1.655000076E-2,2.641339898E-1
1.879637183E1,2.028499916E-2,5.286000203E-3,8.926700056E-2
1.881037869E1,7.393100113E-2,-5.346000195E-3,1.255230010E-1
1.882438625E1,7.393100113E-2,-5.346000195E-3,1.255230010E-1
1.883839301E1,8.406800032E-2,3.751000017E-2,1.948380023E-1
1.885239906E1,4.186600074E-2,7.801400125E-2,2.810780108E-1
1.886640582E1,4.186600074E-2,7.801400125E-2,2.810780108E-1
1.888041342E1,-2.065699920E-2,5.199600011E-2,2.002349943E-1
1.889442016E1,3.372000065E-3,3.511599824E-2,9.540099651E-2
1.890842615E1,4.042000044E-3,2.683500014E-2,9.273699671E-2
1.892243303E1,4.042000044E-3,2.683500014E-2,9.273699671E-2
1.893644060E1,2.793700062E-2,2.108999994E-3,2.083889991E-1
1.895044736E1,2.006400004E-2,-1.705900021E-2,3.529959917E-1
1.896445336E1,2.006400004E-2,-1.705900021E-2,3.529959917E-1
1.897846011E1,-2.232900076E-2,-3.039900027E-2,2.792179883E-1
1.899246763E1,-1.030400023E-2,9.914999828E-3,1.802140027E-1
1.900647438E1,-1.030400023E-2,9.914999828E-3,1.802140027E-1
1.902048034E1,4.017499834E-2,2.017099969E-2,1.113199964E-1
1.903448721E1,3.707399964E-2,3.643200174E-2,1.766480058E-1
1.904849474E1,6.527999882E-3,3.670100123E-2,1.931020021E-1
1.906250151E1,6.527999882E-3,3.670100123E-2,1.931020021E-1
1.907650753E1,-1.317599975E-2,3.316799924E-2,2.175229937E-1
1.909051436E1,3.150099888E-2,2.093899995E-2,1.419979930E-1
1.910452186E1,3.150099888E-2,2.093899995E-2,1.419979930E-1
1.911852864E1,1.161789969E-1,4.053999856E-2,1.666290015E-1
1.913253459E1,7.625100017E-2,4.863499850E-2,3.132460117E-1
1.914654145E1,7.625100017E-2,4.863499850E-2,3.132460117E-1
1.916054899E1,-7.947999984E-2,1.378899999E-2,2.743009925E-1
1.917455578E1,-1.014410034E-1,-2.215000102E-3,1.951249987E-1
1.918856181E1,-3.085999936E-2,-2.969500050E-2,1.141000018E-1
1.920256860E1,-3.085999936E-2,-2.969500050E-2,1.141000018E-1
1.921657616E1,7.065799832E-2,-5.814000033E-3,1.674769968E-1
1.923058305E1,5.428700149E-2,2.810199931E-2,3.278720081E-1
1.924458908E1,5.428700149E-2,2.810199931E-2,3.278720081E-1
1.925859587E1,7.366000209E-3,1.969000092E-3,3.258930147E-1
1.927260350E1,2.027600072E-2,-1.386099961E-2,3.018890023E-1
1.928661026E1,2.027600072E-2,-1.386099961E-2,3.018890023E-1
1.930061624E1,1.870900020E-2,-1.215399988E-2,2.846519947E-1
1.931462302E1,2.170599997E-2,2.999899909E-2,2.311290056E-1
1.932863053E1,-1.705900021E-2,5.981099978E-2,5.373299867E-2
1.934263736E1,-1.705900021E-2,5.981099978E-2,5.373299867E-2
1.935664336E1,8.742599934E-2,1.318430007E-1,1.479129940E-1
1.937065013E1,-6.763000041E-3,3.806599975E-2,3.602139950E-1
1.938465769E1,-6.763000041E-3,3.806599975E-2,3.602139950E-1
1.939866453E1,-3.937999904E-2,-5.042099953E-2,3.065110147E-1
1.941267050E1,-3.552599996E-2,-8.647599816E-2,2.842260003E-1
1.942667724E1,-3.552599996E-2,-8.647599816E-2,2.842260003E-1
1.944068477E1,3.640599921E-2,-4.026500136E-2,1.765500009E-1
1.945469156E1,4.472599924E-2,2.992999973E-3,1.130850017E-1
1.946869756E1,2.096600085E-2,6.736399978E-2,2.037249953E-1
1.948270429E1,2.096600085E-2,6.736399978E-2,2.037249953E-1
1.949671182E1,-8.209000342E-3,6.493999809E-2,2.232870013E-1
1.951071867E1,3.746400028E-2,5.843000114E-2,1.867749989E-1
1.952472467E1,3.746400028E-2,5.843000114E-2,1.867749989E-1
1.953873146E1,3.420099989E-2,4.363999888E-2,1.953849941E-1
1.955273901E1,2.747800015E-2,4.599599913E-2,1.469999999E-1
1.956674588E1,2.747800015E-2,4.599599913E-2,1.469999999E-1
1.958075188E1,2.492200024E-2,5.928299949E-2,1.666519940E-1
1.959475860E1,3.113999963E-3,1.438300032E-2,1.735430062E-1
1.960876614E1,2.900700085E-2,-2.307699993E-2,2.424899936E-1
1.962277298E1,2.900700085E-2,-2.307699993E-2,2.424899936E-1
1.963677901E1,9.704000317E-3,-1.720700040E-2,1.682170033E-1
1.965078578E1,4.193900153E-2,2.031699941E-2,2.108210027E-1
1.966479332E1,4.193900153E-2,2.031699941E-2,2.108210027E-1
1.967880019E1,2.491000108E-3,3.328699991E-2,1.885119975E-1
1.969280626E1,-2.172200009E-2,3.120500036E-2,2.222560048E-1
1.970681303E1,-2.172200009E-2,3.120500036E-2,2.222560048E-1
1.972082057E1,-1.149099972E-2,2.139299922E-2,2.030069977E-1
1.973482741E1,-5.983000156E-3,4.168099910E-2,1.877699941E-1
1.974883342E1,4.574700072E-2,3.098299913E-2,1.406069994E-1
1.976284022E1,4.574700072E-2,3.098299913E-2,1.406069994E-1
1.977684777E1,3.482500091E-2,7.654199749E-2,1.595429927E-1
1.979085462E1,2.824000083E-3,8.474799991E-2,2.074349970E-1
1.980486066E1,2.824000083E-3,8.474799991E-2,2.074349970E-1
1.981886744E1,1.520000049E-3,2.953900024E-2,1.991340071E-1
1.983287498E1,3.258800134E-2,3.957000095E-3,1.438290030E-1
1.984688185E1,3.258800134E-2,3.957000095E-3,1.438290030E-1
1.986088784E1,3.850999847E-2,9.875999764E-3,2.065670043E-1
1.987489460E1,6.419000216E-3,2.359200083E-2,2.422980070E-1
1.988890221E1,2.031599917E-2,1.052599959E-2,1.580200046E-1
1.990290901E1,2.031599917E-2,1.052599959E-2,1.580200046E-1
1.991691498E1,5.780399963E-2,1.733200066E-2,1.479270011E-1
1.993092178E1,1.158300042E-2,-1.235899981E-2,1.957640052E-1
1.994492931E1,1.158300042E-2,-1.235899981E-2,1.957640052E-1
1.995893616E1,-1.677899994E-2,3.861299902E-2,2.765009999E-1
1.997294216E1,5.012900010E-2,6.431599706E-2,1.284109950E-1
1.998694893E1,5.012900010E-2,6.431599706E-2,1.284109950E-1
2.000095647E1,5.275199935E-2,9.082300216E-2,2.025299966E-1
2.001496331E1,-2.330500074E-2,-2.606800012E-2,2.312860042E-1
2.002896926E1,-1.708300039E-2,-1.453400031E-2,2.052260041E-1
2.004297603E1,-1.708300039E-2,-1.453400031E-2,2.052260041E-1
2.005698363E1,3.259999910E-3,1.684599929E-2,3.363060057E-1
2.007099044E1,-4.514300078E-2,5.739099905E-2,1.419959962E-1
2.008499645E1,-4.514300078E-2,5.739099905E-2,1.419959962E-1
2.009900322E1,2.528199926E-2,3.178400174E-2,1.990500093E-2
2.011301072E1,7.109399885E-2,1.380399987E-2,1.109099984E-1
2.012701756E1,7.109399885E-2,1.380399987E-2,1.109099984E-1
2.014102355E1,9.654999711E-3,1.358900033E-2,1.538819969E-1
2.015503034E1,1.303000003E-2,4.004099965E-2,2.239280045E-1
2.016903796E1,2.065400034E-2,7.715900242E-2,2.499469966E-1
2.018304476E1,2.065400034E-2,7.715900242E-2,2.499469966E-1
2.019705071E1,-9.313000366E-3,6.609199941E-2,2.548950016E-1
2.021105746E1,5.623000208E-3,2.906299941E-2,1.617890000E-1
2.022506507E1,5.623000208E-3,2.906299941E-2,1.617890000E-1
2.023907184E1,3.270500153E-2,-5.921000149E-3,1.348839998E-1
2.025307783E1,2.682100050E-2,5.441899970E-2,1.229920015E-1
2.026708460E1,2.682100050E-2,5.441899970E-2,1.229920015E-1
2.028109218E1,-5.415000021E-3,5.663599819E-2,1.849409938E-1
2.029509896E1,3.655299917E-2,2.987200022E-2,1.689089984E-1
2.030910495E1,1.469899993E-2,4.002000019E-2,1.539659947E-1
2.032311172E1,1.469899993E-2,4.002000019E-2,1.539659947E-1
2.033711926E1,1.988700032E-2,5.763100088E-2,1.500229985E-1
2.035112609E1,-1.779099926E-2,4.037100077E-2,9.395799786E-2
2.036513208E1,-1.779099926E-2,4.037100077E-2,9.395799786E-2
2.037913884E1,2.867200039E-2,1.115700044E-2,1.659909934E-1
2.039314636E1,3.793099895E-2,1.315699983E-2,2.170580029E-1
2.040715321E1,3.518399969E-2,3.651700169E-2,2.001930028E-1
2.042115920E1,3.518399969E-2,3.651700169E-2,2.001930028E-1
2.043516600E1,1.256600022E-2,3.733000159E-2,1.902579963E-1
2.044917357E1,4.041700065E-2,1.724099927E-2,1.162559986E-1
2.046318044E1,4.041700065E-2,1.724099927E-2,1.162559986E-1
2.047718646E1,3.161599860E-2,3.886700049E-2,1.883330047E-1
2.049119325E1,-8.329000324E-3,1.663400047E-2,2.213220000E-1
2.050520080E1,-8.329000324E-3,1.663400047E-2,2.213220000E-1
2.051920759E1,2.167700045E-2,1.131599955E-2,1.623460054E-1
2.053321366E1,3.589700162E-2,1.446700003E-2,1.855490059E-1
2.054722041E1,2.853300050E-2,-4.277000204E-3,2.387479991E-1
2.056122794E1,2.853300050E-2,-4.277000204E-3,2.387479991E-1
2.057523480E1,-3.113600053E-2,1.356699970E-2,2.456649989E-1
2.058924076E1,1.734000049E-3,6.837099791E-2,6.388700008E-2
2.060324750E1,1.734000049E-3,6.837099791E-2,6.388700008E-2
2.061725503E1,3.256199881E-2,8.343999833E-2,1.703729928E-1
2.063126192E1,-3.535300121E-2,-3.149100021E-2,2.971900105E-1
2.064526788E1,-3.535300121E-2,-3.149100021E-2,2.971900105E-1
2.065927464E1,-4.870000121E-4,-2.616300061E-2,2.321590036E-1
2.067328218E1,-2.386000007E-3,-8.224000223E-3,3.494200110E-1
2.068728895E1,-2.434999915E-3,3.169500083E-2,2.324180007E-1
2.070129501E1,-2.434999915E-3,3.169500083E-2,2.324180007E-1
2.071530183E1,5.999699980E-2,3.540600091E-2,2.643899992E-2
2.072930935E1,8.381000161E-2,1.316099986E-2,6.254900247E-2
2.074331612E1,8.381000161E-2,1.316099986E-2,6.254900247E-2
2.075732218E1,3.569500148E-2,4.158300161E-2,1.176830009E-1
2.077132898E1,1.536499988E-2,5.784700066E-2,2.110130042E-1
2.078533654E1,1.536499988E-2,5.784700066E-2,2.110130042E-1
2.079934339E1,4.319000058E-3,3.665899858E-2,2.472800016E-1
2.081334950E1,-2.088500001E-2,1.570600085E-2,1.954379976E-1
2.082735626E1,-2.422899939E-2,1.939599961E-2,1.425579935E-1
2.084136376E1,-2.422899939E-2,1.939599961E-2,1.425579935E-1
2.085537055E1,8.932000026E-3,-1.771499962E-2,1.259689927E-1
2.086937663E1,2.675700001E-2,-6.249999860E-4,1.814769953E-1
2.088338340E1,2.675700001E-2,-6.249999860E-4,1.814769953E-1
2.089739094E1,2.062500082E-2,5.365999881E-3,2.279569954E-1
2.091139768E1,3.141399845E-2,-1.416600030E-2,2.592799962E-1
2.092540362E1,3.141399845E-2,-1.416600030E-2,2.592799962E-1
2.093941043E1,1.659600064E-2,2.742199972E-2,2.115660012E-1
2.095341796E1,6.574000232E-3,4.678900167E-2,2.049040049E-1
2.096742477E1,-1.224000007E-3,4.789900035E-2,1.502819955E-1
2.098143079E1,-1.224000007E-3,4.789900035E-2,1.502819955E-1
2.099543767E1,-1.195400022E-2,4.036499932E-2,1.837420017E-1
2.100944517E1,1.254399959E-2,2.824099921E-2,1.601659954E-1
2.102345191E1,1.254399959E-2,2.824099921E-2,1.601659954E-1
2.103745789E1,2.884200029E-2,4.915200174E-2,1.757420003E-1
2.105146474E1,3.665800020E-2,2.266100049E-2,2.333649993E-1
2.106547230E1,3.665800020E-2,2.266100049E-2,2.333649993E-1
2.107947912E1,3.486600146E-2,-1.296599954E-2,2.526699901E-1
2.109348512E1,1.377500035E-2,7.277000230E-3,2.289489955E-1
2.110749187E1,1.866500080E-2,1.648199931E-2,2.201330066E-1
2.112149953E1,1.866500080E-2,1.648199931E-2,2.201330066E-1
2.113550629E1,-1.028000005E-2,5.259999889E-4,1.261879951E-1
2.114951232E1,-3.660999937E-3,2.749999985E-2,1.315699965E-1
2.116351908E1,-3.660999937E-3,2.749999985E-2,1.315699965E-1
2.117752668E1,7.629000116E-3,2.824700065E-2,2.451590002E-1
2.119153346E1,-1.473999955E-2,-9.990000166E-3,2.883020043E-1
2.120553944E1,-1.473999955E-2,-9.990000166E-3,2.883020043E-1
2.121954620E1,8.715000004E-3,2.899600007E-2,1.325809956E-1
2.123355374E1,6.344299763E-2,6.628900021E-2,2.052389979E-1
2.124756060E1,1.675299928E-2,-2.775999950E-3,2.793369889E-1
2.126156659E1,1.675299928E-2,-2.775999950E-3,2.793369889E-1
2.127557336E1,-1.816200092E-2,-1.102299988E-2,2.071519941E-1
2.128958085E1,9.490000084E-4,4.176700115E-2,2.624610066E-1
2.130358761E1,9.490000084E-4,4.176700115E-2,2.624610066E-1
2.131759367E1,-2.411499992E-2,1.787300035E-2,2.225739956E-1
2.133160045E1,1.586900093E-2,-4.865000024E-3,1.247010008E-1
2.134560795E1,1.586900093E-2,-4.865000024E-3,1.247010008E-1
2.135961473E1,7.585699856E-2,-4.645000212E-3,1.988990009E-1
2.137362081E1,9.207600355E-2,5.425000098E-3,2.469750047E-1
2.138762759E1,4.049199820E-2,4.130899906E-2,2.040310055E-1
2.140163509E1,4.049199820E-2,4.130899906E-2,2.040310055E-1
2.141564184E1,1.405499969E-2,6.553599983E-2,1.802330017E-1
2.142964795E1,1.629599929E-2,5.034200102E-2,1.442719996E-1
2.144365473E1,1.629599929E-2,5.034200102E-2,1.442719996E-1
2.145766227E1,1.132000005E-3,2.587199956E-2,1.273140013E-1
2.147166906E1,-2.981000114E-3,7.112999912E-3,1.207029969E-1
2.148567512E1,-2.981000114E-3,7.112999912E-3,1.207029969E-1
2.149968190E1,-9.813999757E-3,1.213099994E-2,2.501890063E-1
2.151368944E1,4.265000112E-3,1.597299986E-2,2.095289975E-1
2.152769620E1,2.031500079E-2,-2.908000024E-3,2.026869953E-1
2.154170219E1,2.031500079E-2,-2.908000024E-3,2.026869953E-1
2.155570906E1,4.382900149E-2,-1.868100092E-2,1.859229952E-1
2.156971654E1,4.654200003E-2,1.399799995E-2,1.583160013E-1
2.158372338E1,4.654200003E-2,1.399799995E-2,1.583160013E-1
2.159772938E1,5.222000182E-3,3.413100168E-2,1.369410008E-1
2.161173613E1,-7.031999994E-3,5.178499967E-2,1.957709938E-1
2.162574366E1,-7.031999994E-3,5.178499967E-2,1.957709938E-1
2.163975051E1,9.871000424E-3,4.432300106E-2,1.814869940E-1
2.165375651E1,5.861200020E-2,2.209400013E-2,2.232699990E-1
2.166776327E1,5.688099936E-2,3.739000065E-3,2.599500120E-1
2.168177082E1,5.688099936E-2,3.739000065E-3,2.599500120E-1
2.169577759E1,6.901000161E-3,1.277100015E-2,2.432740033E-1
2.170978368E1,8.093999699E-3,6.231999956E-3,2.314900011E-1
2.172379048E1,8.093999699E-3,6.231999956E-3,2.314900011E-1
2.173779804E1,7.459999993E-3,2.488500066E-2,2.536779940E-1
2.175180485E1,-2.387000015E-3,7.455000188E-3,2.316199988E-1
2.176581094E1,-2.387000015E-3,7.455000188E-3,2.316199988E-1
2.177981775E1,8.295999840E-3,-5.667000078E-3,1.626020074E-1
2.179382530E1,3.157399967E-2,-9.130000253E-4,2.228890061E-1
2.180783207E1,-2.933999989E-3,-1.197999995E-2,3.452459872E-1
2.182183813E1,-2.933999989E-3,-1.197999995E-2,3.452459872E-1
2.183584489E1,-2.724199928E-2,-4.873999860E-3,3.277620077E-1
2.184985234E1,4.416000098E-3,9.161099792E-2,1.746200025E-1
2.186385909E1,4.416000098E-3,9.161099792E-2,1.746200025E-1
2.187786509E1,4.432599992E-2,9.041599929E-2,2.145089954E-1
2.189187191E1,7.019999903E-3,2.270299941E-2,2.616280019E-1
2.190587945E1,7.019999903E-3,2.270299941E-2,2.616280019E-1
2.191988624E1,1.886999980E-2,-2.028300054E-2,2.247759998E-1
2.193389221E1,2.308000065E-2,-3.892700002E-2,2.995060086E-1
2.194789893E1,2.267899923E-2,8.046999574E-3,2.078849971E-1
2.196190644E1,2.267899923E-2,8.046999574E-3,2.078849971E-1
2.197591328E1,4.650500044E-2,1.101899985E-2,1.470399946E-1
2.198991927E1,8.056099713E-2,2.269300073E-2,2.064090073E-1
2.200392605E1,8.056099713E-2,2.269300073E-2,2.064090073E-1
2.201793358E1,6.782399863E-2,2.653600089E-2,2.218060046E-1
2.203194041E1,-7.040000055E-3,2.132100053E-2,2.191800028E-1
2.204594644E1,-7.040000055E-3,2.132100053E-2,2.191800028E-1
2.205995320E1,-1.586800069E-2,6.571900100E-2,1.753650010E-1
2.207396082E1,1.994100027E-2,6.840399653E-2,1.696629971E-1
2.208796762E1,1.686700061E-2,3.982400149E-2,1.620000005E-1
2.210197369E1,1.686700061E-2,3.982400149E-2,1.620000005E-1
2.211598047E1,8.174999617E-3,-2.200000017E-5,1.755789965E-1
2.212998800E1,5.148000084E-3,-1.021299977E-2,2.231959999E-1
2.214399472E1,5.148000084E-3,-1.021299977E-2,2.231959999E-1
2.215800076E1,9.131000377E-3,1.647599973E-2,1.965599954E-1
2.217200752E1,4.043300077E-2,2.979199961E-2,1.887959987E-1
2.218601513E1,4.043300077E-2,2.979199961E-2,1.887959987E-1
2.220002190E1,1.990799978E-2,2.672399953E-2,1.590619981E-1
2.221402786E1,1.667599939E-2,3.952800110E-2,1.896910071E-1
2.222803463E1,8.081000298E-3,3.813099861E-2,2.013880014E-1
2.224204220E1,8.081000298E-3,3.813099861E-2,2.013880014E-1
2.225604895E1,3.208100051E-2,5.327900127E-2,2.079000026E-1
2.227005504E1,4.304299876E-2,2.445100062E-2,1.835090071E-1
2.228406181E1,4.304299876E-2,2.445100062E-2,1.835090071E-1
2.229806933E1,3.996599838E-2,4.228999838E-2,1.932509989E-1
2.231207611E1,2.668800019E-2,2.174099907E-2,2.479349971E-1
2.232608213E1,2.668800019E-2,2.174099907E-2,2.479349971E-1
2.234008902E1,2.581599914E-2,2.391899936E-2,1.802259982E-1
2.235409656E1,1.463599969E-2,3.671000153E-2,1.147129983E-1
2.236810331E1,8.067999966E-3,5.887899920E-2,1.023200005E-1
2.238210931E1,8.067999966E-3,5.887899920E-2,1.023200005E-1
2.239611610E1,4.397999961E-3,4.216799885E-2,1.427869946E-1
2.241012367E1,8.225999773E-3,4.898000043E-3,1.614309996E-1
2.242413047E1,8.225999773E-3,4.898000043E-3,1.614309996E-1
2.243813656E1,4.069900140E-2,-9.061000310E-3,2.142979950E-1
2.245214333E1,3.220300004E-2,-2.250199951E-2,2.811299860E-1
2.246615085E1,3.220300004E-2,-2.250199951E-2,2.811299860E-1
2.248015758E1,-2.620399930E-2,2.739099972E-2,2.565439939E-1
2.249416358E1,2.713499963E-2,1.025599986E-1,9.833499789E-2
2.250817036E1,4.155100137E-2,1.081369966E-1,1.532430053E-1
2.252217797E1,4.155100137E-2,1.081369966E-1,1.532430053E-1
2.253618473E1,-3.122700006E-2,-8.504999802E-3,2.245749980E-1
2.255019071E1,-2.392000053E-3,-2.860200033E-2,1.853519976E-1
2.256419748E1,-2.392000053E-3,-2.860200033E-2,1.853519976E-1
2.257820505E1,4.495099932E-2,-1.479899976E-2,3.274030089E-1
2.259221182E1,3.335899860E-2,1.587400027E-2,2.841350138E-1
2.260621785E1,3.335899860E-2,1.587400027E-2,2.841350138E-1
2.262022470E1,3.795899823E-2,4.557900131E-2,6.578300148E-2
2.263423217E1,7.479400188E-2,5.208700150E-2,8.963099867E-2
2.264823895E1,-2.463999903E-3,7.480499893E-2,1.104720011E-1
2.266224492E1,-2.463999903E-3,7.480499893E-2,1.104720011E-1
2.267625168E1,-3.216000041E-3,4.310400039E-2,1.804450005E-1
2.269025924E1,3.610400110E-2,3.264199942E-2,2.423979938E-1
2.270426614E1,3.610400110E-2,3.264199942E-2,2.423979938E-1
2.271827211E1,2.500200085E-2,1.329199970E-2,2.472420037E-1
2.273227891E1,3.458000021E-3,3.664100170E-2,1.750590056E-1
2.274628643E1,3.458000021E-3,3.664100170E-2,1.750590056E-1
2.276029318E1,8.298000321E-3,4.153599963E-2,1.491439939E-1
2.277429920E1,-4.681000020E-3,2.774699964E-2,1.821739972E-1
2.278830595E1,1.020000037E-2,1.306900010E-2,2.350270003E-1
2.280231345E1,1.020000037E-2,1.306900010E-2,2.350270003E-1
2.281632026E1,7.442100346E-2,-1.830999972E-3,1.918690056E-1
2.283032621E1,6.051300094E-2,3.584999964E-2,1.249049976E-1
2.284433301E1,6.051300094E-2,3.584999964E-2,1.249049976E-1
2.285834053E1,8.001999930E-3,7.975400239E-2,1.009360030E-1
2.287234734E1,-3.624200076E-2,1.130229980E-1,9.784799814E-2
2.288635335E1,-3.624200076E-2,1.130229980E-1,9.784799814E-2
2.290036019E1,2.924500033E-2,5.415799841E-2,1.097069979E-1
2.291436763E1,2.628399990E-2,2.583000110E-3,1.316860020E-1
2.292837447E1,2.779000066E-2,1.884699985E-2,1.867969930E-1
2.294238049E1,2.779000066E-2,1.884699985E-2,1.867969930E-1
2.295638722E1,1.893999986E-3,1.030899957E-2,2.128089964E-1
2.297039478E1,2.913700044E-2,3.889000043E-2,1.838070005E-1
2.298440158E1,2.913700044E-2,3.889000043E-2,1.838070005E-1
2.299840753E1,5.582999904E-3,4.072500020E-2,2.058130056E-1
2.301241431E1,2.685900033E-2,1.499000005E-2,1.627449989E-1
2.302642187E1,2.685900033E-2,1.499000005E-2,1.627449989E-1
2.304042874E1,3.679599985E-2,5.264999811E-3,1.287640035E-1
2.305443477E1,3.465000167E-2,7.751999889E-3,1.888370067E-1
2.306844159E1,1.910700090E-2,-2.844800055E-2,2.588109970E-1
2.308244911E1,1.910700090E-2,-2.844800055E-2,2.588109970E-1
2.309645586E1,-1.520999987E-2,3.275499865E-2,1.028039977E-1
2.311046187E1,7.300700247E-2,1.028869972E-1,9.813500196E-2
2.312446864E1,7.300700247E-2,1.028869972E-1,9.813500196E-2
2.313847617E1,3.524700180E-2,6.106299907E-2,2.612240016E-1
2.315248296E1,-1.376099978E-2,-1.724299975E-2,1.440719962E-1
2.316648901E1,-1.376099978E-2,-1.724299975E-2,1.440719962E-1
2.318049580E1,1.513700001E-2,-3.769500181E-2,2.424000055E-1
2.319450335E1,-1.367599983E-2,4.690799862E-2,4.075619876E-1
2.320851014E1,-7.864999585E-3,5.990999937E-2,2.474460006E-1
2.322251614E1,-7.864999585E-3,5.990999937E-2,2.474460006E-1
2.323652279E1,5.512199923E-2,2.875800058E-2,1.014079973E-1
2.325053032E1,4.229699820E-2,-2.570899948E-2,9.844899923E-2
2.326453708E1,4.229699820E-2,-2.570899948E-2,9.844899923E-2
2.327854312E1,3.453899920E-2,-1.569999964E-3,1.135279983E-1
2.329254988E1,3.679899871E-2,4.047400132E-2,1.467339993E-1
2.330655746E1,3.679899871E-2,4.047400132E-2,1.467339993E-1
2.332056426E1,-1.511999988E-3,8.453399688E-2,1.780160069E-1
2.333457024E1,-2.310200036E-2,6.254699826E-2,2.211530060E-1
2.334857702E1,-2.819000045E-3,1.295000035E-2,2.142550051E-1
2.336258455E1,-2.819000045E-3,1.295000035E-2,2.142550051E-1
2.337659130E1,3.311000019E-2,-3.398799896E-2,2.294960022E-1
2.339059732E1,4.727999866E-2,-3.457700089E-2,1.737249941E-1
2.340460406E1,4.727999866E-2,-3.457700089E-2,1.737249941E-1
2.341861158E1,2.774599940E-2,1.638899930E-2,1.668799967E-1
2.343261836E1,3.079199977E-2,2.896999940E-2,1.550330073E-1
2.344662456E1,3.079199977E-2,2.896999940E-2,1.550330073E-1
2.346063127E1,3.787200153E-2,5.931999907E-2,1.843580008E-1
2.347463877E1,1.391599979E-2,6.222999841E-2,1.916410029E-1
2.348864555E1,-1.959699951E-2,2.950200066E-2,2.259249985E-1
2.350265155E1,-1.959699951E-2,2.950200066E-2,2.259249985E-1
2.351665829E1,1.257499959E-2,-1.420699991E-2,1.951629966E-1
2.353066580E1,2.402799949E-2,3.818999976E-2,1.255200058E-1
2.354467259E1,2.402799949E-2,3.818999976E-2,1.255200058E-1
2.355867856E1,2.778900042E-2,6.884700060E-2,1.909109950E-1
2.357268533E1,3.475100175E-2,6.724400073E-2,2.292000055E-1
2.358669289E1,3.475100175E-2,6.724400073E-2,2.292000055E-1
2.360069966E1,2.964599989E-2,8.099999832E-5,2.105219960E-1
2.361470575E1,3.300000099E-4,-4.720999859E-3,1.797250062E-1
2.362871254E1,5.212999880E-3,7.515999954E-3,9.384799749E-2
2.364272011E1,5.212999880E-3,7.515999954E-3,9.384799749E-2
2.365672687E1,2.949400060E-2,2.620399930E-2,1.252650023E-1
2.367073289E1,4.215500131E-2,1.672000065E-2,2.620730102E-1
2.368473970E1,4.215500131E-2,1.672000065E-2,2.620730102E-1
2.369874726E1,-1.338099968E-2,-1.679099910E-2,3.463680148E-1
2.371275407E1,-2.954199910E-2,2.016099915E-2,1.505459994E-1
2.372676010E1,-2.954199910E-2,2.016099915E-2,1.505459994E-1
2.374076687E1,3.090599924E-2,7.030899823E-2,2.151679993E-1
2.375477441E1,5.342999939E-3,5.884999875E-3,2.821179926E-1
2.376878122E1,1.312300004E-2,-2.345200069E-2,2.059489936E-1
2.378278728E1,1.312300004E-2,-2.345200069E-2,2.059489936E-1
2.379679406E1,4.126799852E-2,-2.520699985E-2,2.352979928E-1
2.381080159E1,1.315299980E-2,1.707899943E-2,1.705220044E-1
2.382480833E1,1.315299980E-2,1.707899943E-2,1.705220044E-1
2.383881434E1,1.027700026E-2,2.230899967E-2,1.206630021E-1
2.385282112E1,6.562399864E-2,7.145199925E-2,1.758670062E-1
2.386682860E1,6.562399864E-2,7.145199925E-2,1.758670062E-1
2.388083533E1,3.717299923E-2,5.123300105E-2,2.279939950E-1
2.389484133E1,2.508000005E-3,1.158200018E-2,2.260829955E-1
2.390884813E1,2.827199921E-2,1.110799983E-2,1.851940006E-1
2.392285564E1,2.827199921E-2,1.110799983E-2,1.851940006E-1
2.393686239E1,1.120399963E-2,3.283800185E-2,1.693470031E-1
2.395086839E1,-3.705599904E-2,5.822199956E-2,1.836010069E-1
2.396487516E1,-3.705599904E-2,5.822199956E-2,1.836010069E-1
2.397888266E1,-8.971000090E-3,8.867000230E-3,2.009280026E-1
2.399288948E1,3.138900176E-2,-1.365699992E-2,2.412050068E-1
2.400689546E1,3.138900176E-2,-1.365699992E-2,2.412050068E-1
2.402090221E1,3.788999980E-3,9.265000001E-3,1.603630036E-1
2.403490980E1,4.288600013E-2,1.323099993E-2,1.624280065E-1
2.404891654E1,5.967900157E-2,6.215999834E-3,1.605219990E-1
2.406292262E1,5.967900157E-2,6.215999834E-3,1.605219990E-1
2.407692937E1,2.835899964E-2,3.124400042E-2,1.777970046E-1
2.409093693E1,3.034000052E-3,5.102200061E-2,1.713829935E-1
2.410494365E1,3.034000052E-3,5.102200061E-2,1.713829935E-1
2.411894970E1,-7.964000106E-3,4.542899877E-2,1.638190001E-1
2.413295647E1,1.910500042E-2,3.704699874E-2,1.813109964E-1
2.414696401E1,1.910500042E-2,3.704699874E-2,1.813109964E-1
2.416097077E1,5.794699863E-2,2.238300070E-2,2.540400028E-1
2.417497679E1,1.552699972E-2,1.214300003E-2,2.593219876E-1
2.418898359E1,-2.792399935E-2,4.896999802E-3,1.632830054E-1
2.420299111E1,-2.792399935E-2,4.896999802E-3,1.632830054E-1
2.421699782E1,2.279999899E-3,2.920800075E-2,1.493719965E-1
2.423100381E1,2.906700037E-2,3.325900063E-2,1.687079966E-1
2.424501054E1,2.906700037E-2,3.325900063E-2,1.687079966E-1
2.425901808E1,3.002700023E-2,9.908000007E-3,2.069640011E-1
2.427302484E1,-5.063000135E-3,-2.681699954E-2,2.260420024E-1
2.428703090E1,-5.063000135E-3,-2.681699954E-2,2.260420024E-1
2.430103772E1,1.988700032E-2,-1.293599978E-2,2.244320065E-1
2.431504522E1,2.339999937E-2,1.290300023E-2,2.798550129E-1
2.432905201E1,-6.199999916E-5,1.171400025E-2,2.971149981E-1
2.434305801E1,-6.199999916E-5,1.171400025E-2,2.971149981E-1
2.435706477E1,-3.056699969E-2,2.170800045E-2,2.867609859E-1
2.437107231E1,3.340899944E-2,8.998599648E-2,1.359910071E-1
2.438507901E1,3.340899944E-2,8.998599648E-2,1.359910071E-1
2.439908498E1,3.977899998E-2,3.416899964E-2,2.490260005E-1
2.441309173E1,-2.472999971E-3,-1.703600027E-2,3.053629994E-1
2.442709933E1,-2.472999971E-3,-1.703600027E-2,3.053629994E-1
2.444110616E1,1.699800044E-2,-3.406200185E-2,3.240540028E-1
2.445511216E1,2.037799917E-2,-2.504600026E-2,3.266879916E-1
2.446911897E1,6.333000027E-3,-1.089000027E-3,1.530369967E-1
2.448312651E1,6.333000027E-3,-1.089000027E-3,1.530369967E-1
2.449713322E1,4.885800183E-2,3.333399817E-2,1.095290035E-1
2.451113926E1,4.769200087E-2,6.790900230E-2,1.979839951E-1
2.452514600E1,4.769200087E-2,6.790900230E-2,1.979839951E-1
2.453915353E1,-4.488000181E-3,4.425900057E-2,2.335249931E-1
2.455316028E1,-1.186100021E-2,3.290300071E-2,2.140650004E-1
2.456716628E1,2.298800088E-2,2.206999995E-2,1.745609939E-1
2.458117307E1,2.298800088E-2,2.206999995E-2,1.745609939E-1
2.459518067E1,3.634399921E-2,4.778800160E-2,1.860280037E-1
2.460918744E1,2.016999992E-3,3.843799978E-2,2.046039999E-1
2.462319347E1,2.016999992E-3,3.843799978E-2,2.046039999E-1
2.463720023E1,-2.389100008E-2,7.664000150E-3,2.623609900E-1
2.465120777E1,3.451099992E-2,-3.152300045E-2,2.259979993E-1
2.466521451E1,3.451099992E-2,-3.152300045E-2,2.259979993E-1
2.467922046E1,2.922400087E-2,-1.439599972E-2,1.825589985E-1
2.469322716E1,2.225399949E-2,-5.803000182E-3,1.580320001E-1
2.470723470E1,-1.530000009E-3,6.234300137E-2,1.575819999E-1
2.472124147E1,-1.530000009E-3,6.234300137E-2,1.575819999E-1
2.473524748E1,1.069200039E-2,8.517900109E-2,1.521520019E-1
2.474925427E1,5.328000057E-3,5.260699987E-2,1.688109934E-1
2.476326180E1,5.328000057E-3,5.260699987E-2,1.688109934E-1
2.477726858E1,1.575800031E-2,3.244699910E-2,1.585360020E-1
2.479127454E1,1.595499925E-2,3.618900105E-2,1.993319988E-1
2.480528131E1,1.595499925E-2,3.618900105E-2,1.993319988E-1
2.481928886E1,2.094900049E-2,6.519199908E-2,2.282000035E-1
2.483329562E1,4.354299977E-2,2.977100015E-2,2.128770053E-1
2.484730162E1,1.307199989E-2,5.719999783E-3,1.574269980E-1
2.486130836E1,1.307199989E-2,5.719999783E-3,1.574269980E-1
2.487531595E1,1.515800040E-2,2.100599930E-2,1.410370022E-1
2.488932273E1,1.025700010E-2,5.078599975E-2,2.458679974E-1
2.490332874E1,1.025700010E-2,5.078599975E-2,2.458679974E-1
2.491733557E1,-1.902100071E-2,1.375399996E-2,2.765609920E-1
2.493134309E1,1.836599968E-2,3.581000026E-3,1.542209983E-1
2.494534992E1,1.836599968E-2,3.581000026E-3,1.542209983E-1
2.495935590E1,5.132099986E-2,1.561900042E-2,1.560859978E-1
2.497336278E1,4.024799913E-2,2.310499921E-2,1.589210033E-1
2.498737024E1,-8.839999791E-4,7.747200131E-2,1.606290042E-1
2.500137701E1,-8.839999791E-4,7.747200131E-2,1.606290042E-1
2.501538302E1,5.176300183E-2,1.206099987E-1,1.078030020E-1
2.502938978E1,3.822299838E-2,9.741999954E-2,2.828870118E-1
2.504339723E1,3.822299838E-2,9.741999954E-2,2.828870118E-1
2.505740399E1,-1.508999965E-3,-1.372900046E-2,3.114809990E-1
2.507140999E1,1.652600057E-2,-1.351599954E-2,2.254209965E-1
2.508541674E1,1.652600057E-2,-1.351599954E-2,2.254209965E-1
2.509942426E1,2.729699947E-2,1.015300024E-2,2.993929982E-1
2.511343101E1,2.303699963E-2,6.902799755E-2,1.340270042E-1
2.512743697E1,7.590299845E-2,5.418699980E-2,8.081500232E-2
2.514144370E1,7.590299845E-2,5.418699980E-2,8.081500232E-2
2.515545125E1,7.453499734E-2,2.156499960E-2,1.477400064E-1
2.516945800E1,1.357899979E-2,3.040700033E-2,1.766310036E-1
2.518346396E1,1.357899979E-2,3.040700033E-2,1.766310036E-1
2.519747071E1,1.426300034E-2,5.032499880E-2,2.005490065E-1
2.521147829E1,2.355000004E-3,6.938699633E-2,1.784230024E-1
2.522548505E1,2.355000004E-3,6.938699633E-2,1.784230024E-1
2.523949104E1,1.189500000E-2,6.670100242E-2,1.762589961E-1
2.525349791E1,-1.157500036E-2,4.764899984E-2,1.400700063E-1
2.526750540E1,1.202599984E-2,1.488799974E-2,1.761180013E-1
2.528151218E1,1.202599984E-2,1.488799974E-2,1.761180013E-1
2.529551820E1,1.978399977E-2,2.342999913E-2,1.811390072E-1
2.530952502E1,3.608300164E-2,2.391700074E-2,1.900600046E-1
2.532353258E1,3.608300164E-2,2.391700074E-2,1.900600046E-1
2.533753937E1,4.714699835E-2,3.791800141E-2,1.619780064E-1
2.535154539E1,9.607999586E-3,7.075300068E-2,8.699399978E-2
2.536555218E1,9.607999586E-3,7.075300068E-2,8.699399978E-2
2.537955974E1,-3.530099988E-2,9.297200292E-2,2.993699908E-2
2.539356653E1,2.851600014E-2,6.981299818E-2,3.893100098E-2
2.540757253E1,6.335800141E-2,4.040999804E-3,2.050289959E-1
2.542157926E1,6.335800141E-2,4.040999804E-3,2.050289959E-1
2.543558680E1,2.876899950E-2,1.414200012E-2,2.672620118E-1
2.544959356E1,2.006899938E-2,3.795000166E-2,3.084599972E-1
2.546359962E1,2.006899938E-2,3.795000166E-2,3.084599972E-1
2.547760636E1,2.684099972E-2,4.248199984E-2,2.434860021E-1
2.549161384E1,4.211900011E-2,4.172100127E-2,1.145059988E-1
2.550562060E1,4.211900011E-2,4.172100127E-2,1.145059988E-1
2.551962658E1,3.820699826E-2,2.849699929E-2,1.475459933E-1
2.553363331E1,3.545799851E-2,3.172500059E-2,1.165150031E-1
2.554764087E1,3.809100017E-2,3.941499814E-2,1.456789970E-1
2.556164762E1,3.809100017E-2,3.941499814E-2,1.456789970E-1
2.557565359E1,3.655099869E-2,1.160600036E-2,2.490040064E-1
2.558966034E1,-1.377100032E-2,-3.387400135E-2,3.060359955E-1
2.560366787E1,-1.377100032E-2,-3.387400135E-2,3.060359955E-1
2.561767463E1,-3.489999846E-2,2.473499998E-2,1.429080069E-1
2.563168067E1,5.770799890E-2,9.763800353E-2,1.194470003E-1
2.564568742E1,5.770799890E-2,9.763800353E-2,1.194470003E-1
2.565969483E1,4.410000052E-3,2.194000036E-2,2.465800047E-1
2.567370159E1,-2.667799965E-2,-3.919799998E-2,2.444059998E-1
2.568770762E1,3.888100013E-2,-1.105299965E-2,2.995940149E-1
2.570171437E1,3.888100013E-2,-1.105299965E-2,2.995940149E-1
2.571572189E1,1.158900000E-2,6.388200074E-2,2.755720019E-1
2.572972864E1,2.648999915E-2,4.541600123E-2,6.741599739E-2
2.574373461E1,2.648999915E-2,4.541600123E-2,6.741599739E-2
2.575774135E1,8.034300059E-2,1.566799916E-2,3.646799922E-2
2.577174888E1,6.762599945E-2,4.839900136E-2,1.517080069E-1
2.578575567E1,6.762599945E-2,4.839900136E-2,1.517080069E-1
2.579976167E1,-9.882000275E-3,5.057400092E-2,1.778980047E-1
2.581376844E1,-5.470999982E-3,3.355100006E-2,1.561339945E-1
2.582777593E1,2.402099967E-2,4.701400176E-2,1.183829978E-1
2.584178267E1,2.402099967E-2,4.701400176E-2,1.183829978E-1
2.585578869E1,1.869699918E-2,5.023400113E-2,1.547729969E-1
2.586979546E1,-3.763000015E-3,3.307000035E-3,1.881860048E-1
2.588380297E1,-3.763000015E-3,3.307000035E-3,1.881860048E-1
2.589780972E1,3.128099814E-2,-2.268400043E-2,3.016850054E-1
2.591181569E1,1.880699955E-2,-2.799299918E-2,2.850039899E-1
2.592582245E1,1.880699955E-2,-2.799299918E-2,2.850039899E-1
2.593982998E1,1.067799982E-2,-1.535400003E-2,2.591240108E-1
2.595383672E1,1.770099998E-2,1.971800067E-2,1.991689950E-1
2.596784278E1,3.671599925E-2,5.669999868E-2,1.923740059E-1
2.598184951E1,3.671599925E-2,5.669999868E-2,1.923740059E-1
2.599585701E1,-2.350899950E-2,6.971699744E-2,1.466719955E-1
2.600986377E1,-5.611999892E-3,4.329099879E-2,2.099020034E-1
2.602386976E1,-5.611999892E-3,4.329099879E-2,2.099020034E-1
2.603787652E1,2.910500020E-2,2.443899959E-2,2.291229963E-1
2.605188406E1,4.896000028E-2,3.883399814E-2,1.764429957E-1
2.606589085E1,4.896000028E-2,3.883399814E-2,1.764429957E-1
2.607989685E1,3.449700028E-2,2.878499962E-2,2.129099965E-1
2.609390360E1,2.008599974E-2,1.557299960E-2,2.059749961E-1
2.610791112E1,-9.840000421E-4,3.495100141E-2,1.580439955E-1
2.612191788E1,-9.840000421E-4,3.495100141E-2,1.580439955E-1
2.613592388E1,3.423900157E-2,6.297000218E-3,2.301349938E-1
2.614993067E1,1.806900091E-2,-6.771000102E-3,1.960940063E-1
2.616393823E1,1.806900091E-2,-6.771000102E-3,1.960940063E-1
2.617794490E1,4.566499963E-2,-1.159700006E-2,1.703550071E-1
2.619195088E1,5.883900076E-2,8.660000167E-4,2.447459996E-1
2.620595768E1,5.883900076E-2,8.660000167E-4,2.447459996E-1
2.621996523E1,1.337999944E-3,2.437300049E-2,3.187299967E-1
2.623397201E1,-2.996000089E-2,5.046299845E-2,1.006689966E-1
2.624797794E1,6.029300019E-2,8.500400186E-2,9.712699801E-2
2.626198468E1,6.029300019E-2,8.500400186E-2,9.712699801E-2
2.627599226E1,-9.290000424E-3,1.415000018E-2,2.279909998E-1
2.628999894E1,-2.019999956E-4,-1.122799981E-2,2.017550021E-1
2.630400490E1,-2.019999956E-4,-1.122799981E-2,2.017550021E-1
2.631801165E1,-1.150199957E-2,2.339399979E-2,2.620140016E-1
2.633201921E1,-1.469899993E-2,2.358499914E-2,2.521460056E-1
2.634602596E1,-1.469899993E-2,2.358499914E-2,2.521460056E-1
2.636003196E1,6.292799860E-2,-6.186999846E-3,1.184720024E-1
2.637403874E1,9.236299992E-2,-2.776600048E-2,1.258430034E-1
2.638804623E1,1.986099966E-2,1.261799969E-2,2.030960023E-1
2.640205297E1,1.986099966E-2,1.261799969E-2,2.030960023E-1
2.641605894E1,-2.713999944E-3,6.061900035E-2,1.483069956E-1
2.643006570E1,2.423099987E-2,8.054900169E-2,1.146100014E-1
2.644407324E1,2.423099987E-2,8.054900169E-2,1.146100014E-1
2.645808009E1,-4.011999816E-3,5.722400174E-2,1.390720010E-1
2.647208615E1,9.816999547E-3,3.932299837E-2,2.235970050E-1
2.648609280E1,9.816999547E-3,3.932299837E-2,2.235970050E-1
2.650010034E1,2.791099995E-2,-2.746400051E-2,2.513479888E-1
2.651410713E1,2.100400068E-2,-1.611400023E-2,3.107849956E-1
2.652811314E1,-2.449000021E-3,1.225600019E-2,1.729920059E-1
2.654211994E1,-2.449000021E-3,1.225600019E-2,1.729920059E-1
2.655612745E1,2.170800045E-2,2.692300081E-2,1.442449987E-1
2.657013417E1,1.776400022E-2,2.590500005E-2,1.515219957E-1
2.658414026E1,1.776400022E-2,2.590500005E-2,1.515219957E-1
2.659814699E1,1.601899974E-2,1.827500015E-2,2.019859999E-1
2.661215456E1,3.902999917E-3,3.606500104E-2,2.055349946E-1
2.662616135E1,3.902999917E-3,3.606500104E-2,2.055349946E-1
2.664016735E1,1.180000044E-2,2.376599982E-2,2.422560006E-1
2.665417416E1,2.555000037E-2,2.601700090E-2,2.307980061E-1
2.666818158E1,3.726600111E-2,4.229699820E-2,1.953960061E-1
2.668218832E1,3.726600111E-2,4.229699820E-2,1.953960061E-1
2.669619430E1,4.188499972E-2,1.154700015E-2,1.670410037E-1
2.671020108E1,4.110100120E-2,-5.729999859E-3,1.383879930E-1
2.672420865E1,4.110100120E-2,-5.729999859E-3,1.383879930E-1
2.673821538E1,2.923999913E-2,2.286300063E-2,1.558240056E-1
2.675222140E1,2.554699965E-2,4.025800154E-2,2.013590038E-1
2.676622812E1,2.554699965E-2,4.025800154E-2,2.013590038E-1
2.678023555E1,1.048900001E-2,2.409300022E-2,2.408629954E-1
2.679424229E1,2.237500064E-2,-4.736999981E-3,1.883410066E-1
2.680824825E1,1.726599969E-2,-3.251500055E-2,2.560659945E-1
2.682225502E1,1.726599969E-2,-3.251500055E-2,2.560659945E-1
2.683626259E1,-7.747000083E-3,-3.278199956E-2,3.167850077E-1
2.685026927E1,-3.313000128E-2,5.300000194E-4,2.977370024E-1
2.686427522E1,-3.313000128E-2,5.300000194E-4,2.977370024E-1
2.687828200E1,-1.572399959E-2,4.598199949E-2,1.057199985E-1
2.689228954E1,6.095400080E-2,8.106999844E-2,1.642750055E-1
2.690629634E1,6.095400080E-2,8.106999844E-2,1.642750055E-1
2.692030236E1,-4.459999909E-4,-7.389000151E-3,3.000760078E-1
2.693430907E1,-7.373000029E-3,-3.525700048E-2,3.356890082E-1
2.694831655E1,6.116000004E-3,-2.500299923E-2,3.696230054E-1
2.696232330E1,6.116000004E-3,-2.500299923E-2,3.696230054E-1
2.697632930E1,1.100500021E-2,-1.998000080E-3,1.940419972E-1
2.699033609E1,4.486700147E-2,1.836000010E-3,1.646479964E-1
2.700434358E1,4.486700147E-2,1.836000010E-3,1.646479964E-1
2.701835036E1,6.006300077E-2,9.549999959E-4,2.052890062E-1
2.703235633E1,4.451600090E-2,2.102600038E-2,2.498490065E-1
2.704636305E1,4.451600090E-2,2.102600038E-2,2.498490065E-1
2.706037057E1,2.762000076E-3,4.539899901E-2,2.401960045E-1
2.707437734E1,2.868999960E-3,3.056599945E-2,2.006279975E-1
2.708838333E1,1.095800009E-2,4.183899984E-2,1.911150068E-1
2.710239000E1,1.095800009E-2,4.183899984E-2,1.911150068E-1
2.711639752E1,1.377000008E-3,8.322999813E-3,1.875880063E-1
2.713040426E1,7.166000083E-3,-3.563899919E-2,1.712850034E-1
2.714441028E1,7.166000083E-3,-3.563899919E-2,1.712850034E-1
2.715841703E1,-1.392000006E-3,8.646000177E-3,2.139800042E-1
2.717242456E1,-1.251299959E-2,4.902999848E-3,1.965550035E-1
2.718643134E1,-1.251299959E-2,4.902999848E-3,1.965550035E-1
2.720043732E1,4.494100064E-2,-5.317000207E-3,2.629460096E-1
2.721444408E1,2.786600031E-2,-3.288900107E-2,2.482870072E-1
2.722845162E1,-1.687699929E-2,-3.655999899E-3,2.236119956E-1
2.724245835E1,-1.687699929E-2,-3.655999899E-3,2.236119956E-1
2.725646435E1,-2.860300057E-2,6.801799685E-2,1.648380011E-1
2.727047114E1,7.125999779E-3,8.336199820E-2,1.212660000E-1
2.728447868E1,7.125999779E-3,8.336199820E-2,1.212660000E-1
2.729848546E1,6.221500039E-2,5.661600083E-2,1.378660053E-1
2.731249152E1,6.019299850E-2,3.486499935E-2,2.026239932E-1
2.732649821E1,6.019299850E-2,3.486499935E-2,2.026239932E-1
2.734050575E1,4.505999852E-3,1.626699977E-2,2.451159954E-1
2.735451254E1,-5.588999949E-3,2.348300070E-2,2.084179968E-1
2.736851857E1,1.191399992E-2,3.523499891E-2,1.357100010E-1
2.738252529E1,1.191399992E-2,3.523499891E-2,1.357100010E-1
2.739653274E1,1.018400025E-2,5.474499986E-2,1.352010071E-1
2.741053950E1,2.149800025E-2,2.541299909E-2,2.067479938E-1
2.742454551E1,2.149800025E-2,2.541299909E-2,2.067479938E-1
2.743855226E1,8.926000446E-3,-4.191000015E-2,2.232619971E-1
2.745255983E1,1.934999973E-2,-2.166900039E-2,1.869760007E-1
2.746656650E1,1.934999973E-2,-2.166900039E-2,1.869760007E-1
2.748057253E1,2.890099958E-2,2.629899979E-2,2.578249872E-1
2.749457930E1,6.376000121E-3,2.643899992E-2,2.194990069E-1
2.750858687E1,-5.038499832E-2,6.880600005E-2,1.428920031E-1
2.752259360E1,-5.038499832E-2,6.880600005E-2,1.428920031E-1
2.753659961E1,1.540100016E-2,1.134179980E-1,6.370499730E-2
2.755060633E1,6.899000145E-3,2.825799957E-2,2.112440020E-1
2.756461387E1,6.899000145E-3,2.825799957E-2,2.112440020E-1
2.757862059E1,3.166999901E-3,-4.227599874E-2,2.536880076E-1
2.759262659E1,2.504800074E-2,-1.550399978E-2,2.845500112E-1
2.760663337E1,2.504800074E-2,-1.550399978E-2,2.845500112E-1
2.762064083E1,-3.431000048E-3,3.540100157E-2,3.231610060E-1
2.763464764E1,-7.131999824E-3,1.319800038E-2,1.426469982E-1
2.764865361E1,7.237599790E-2,-3.841999918E-3,8.034600317E-2
2.766266038E1,7.237599790E-2,-3.841999918E-3,8.034600317E-2
2.767666781E1,6.557600200E-2,1.778499968E-2,1.281200051E-1
2.769067458E1,-5.336000118E-3,4.624800012E-2,1.518660039E-1
2.770468058E1,-5.336000118E-3,4.624800012E-2,1.518660039E-1
2.771868731E1,3.446999937E-3,6.628800184E-2,1.827719957E-1
2.773269487E1,2.549700066E-2,4.910400137E-2,2.186470032E-1
2.774670165E1,2.549700066E-2,4.910400137E-2,2.186470032E-1
2.776070761E1,-8.149999776E-4,5.030399933E-2,2.183510065E-1
2.777471429E1,-2.205000026E-3,1.657599956E-2,1.601949930E-1
2.778872186E1,-1.923999982E-3,1.053099986E-2,2.342039943E-1
2.780272864E1,-1.923999982E-3,1.053099986E-2,2.342039943E-1
2.781673464E1,-1.855799928E-2,2.343999920E-3,2.060910016E-1
2.783074142E1,3.307899833E-2,1.263999962E-3,2.458530068E-1
2.784474886E1,3.307899833E-2,1.263999962E-3,2.458530068E-1
2.785875569E1,2.718999982E-2,-7.399000227E-3,2.076400071E-1
2.787276168E1,6.473999936E-3,3.676800057E-2,1.885129958E-1
2.788676847E1,6.473999936E-3,3.676800057E-2,1.885129958E-1
2.790077597E1,-2.350199968E-2,5.646799877E-2,1.502870023E-1
2.791478269E1,1.043699961E-2,6.430900097E-2,1.590899974E-1
2.792878872E1,3.294999897E-2,5.633600056E-2,1.469479948E-1
2.794279547E1,3.294999897E-2,5.633600056E-2,1.469479948E-1
2.795680299E1,-5.981000140E-3,5.641200021E-2,9.385800362E-2
2.797080977E1,7.500000356E-5,6.436499953E-2,1.158360019E-1
2.798481578E1,7.500000356E-5,6.436499953E-2,1.158360019E-1
2.799882245E1,2.145499922E-2,4.389899969E-2,1.137769967E-1
2.801283000E1,2.563199960E-2,3.155799955E-2,1.537729949E-1
2.802683678E1,2.563199960E-2,3.155799955E-2,1.537729949E-1
2.804084280E1,2.023099922E-2,8.019000292E-3,1.927279979E-1
2.805484959E1,1.238000020E-2,2.635199949E-2,1.496720016E-1
2.806885700E1,2.597399987E-2,1.598599926E-2,1.348109990E-1
2.808286381E1,2.597399987E-2,1.598599926E-2,1.348109990E-1
2.809686978E1,1.384000015E-2,7.966999896E-3,2.120099962E-1
2.811087651E1,-1.416699961E-2,-1.753699966E-2,2.689610124E-1
2.812488403E1,-1.416699961E-2,-1.753699966E-2,2.689610124E-1
2.813889073E1,-1.064299978E-2,1.677500084E-2,9.390699863E-2
2.815289669E1,7.199399918E-2,9.672500193E-2,8.727300167E-2
2.816690346E1,7.199399918E-2,9.672500193E-2,8.727300167E-2
2.818091103E1,-2.787300013E-2,5.272000097E-3,2.763170004E-1
2.819491772E1,-5.351000000E-3,-4.030700028E-2,2.312150002E-1
2.820892380E1,3.041400015E-2,-5.740000051E-4,3.104799986E-1
2.822293048E1,3.041400015E-2,-5.740000051E-4,3.104799986E-1
2.823693801E1,8.655999787E-3,1.199499983E-2,3.085500002E-1
2.825094475E1,1.623100042E-2,7.451999933E-3,4.239999875E-2
2.826495072E1,1.623100042E-2,7.451999933E-3,4.239999875E-2
2.827895750E1,6.802000105E-2,1.237899996E-2,2.047700062E-2
2.829296494E1,2.312799916E-2,3.438400105E-2,1.236409992E-1
2.830697173E1,2.312799916E-2,3.438400105E-2,1.236409992E-1
